participant_id,random_id,trial_index,trial_number,time_elapsed,rt,stimulus,object_id,angle,same_different,response,task,correct_response,correct,is_right,response_1,response_2,response_3,response_4,response_5,response_6,response_7,response_8,response_9,response_10,response_11,response_12,response_13,response_14,response_15,response_16,age,gender,education,handedness,vision,technical_difficulties,knowledge_check
giraffe,p2mpwwhb0pg,6,1,51817,10649,stimuli/30_0_R.jpg,30,0,different,j,response,j,TRUE,1,Moderately clear and lively,Clear and lively,Moderately clear and lively,Clear and lively,Moderately clear and lively,Dim and vague; flat,"No image at all, you only “know” that you are thinking of the object","No image at all, you only “know” that you are thinking of the object",Clear and lively,"No image at all, you only “know” that you are thinking of the object",Moderately clear and lively,Dim and vague; flat,Moderately clear and lively,Dim and vague; flat,Moderately clear and lively,Dim and vague; flat,21,male,some-college,right,corrected,no,mental rotation based on positioning
giraffe,p2mpwwhb0pg,9,2,58625,5299,stimuli/13_50_R.jpg,13,50,different,j,response,j,TRUE,1,Moderately clear and lively,Clear and lively,Moderately clear and lively,Clear and lively,Moderately clear and lively,Dim and vague; flat,"No image at all, you only “know” that you are thinking of the object","No image at all, you only “know” that you are thinking of the object",Clear and lively,"No image at all, you only “know” that you are thinking of the object",Moderately clear and lively,Dim and vague; flat,Moderately clear and lively,Dim and vague; flat,Moderately clear and lively,Dim and vague; flat,21,male,some-college,right,corrected,no,mental rotation based on positioning
giraffe,p2mpwwhb0pg,12,3,62792,2659,stimuli/11_0.jpg,11,0,same,f,response,f,TRUE,1,Moderately clear and lively,Clear and lively,Moderately clear and lively,Clear and lively,Moderately clear and lively,Dim and vague; flat,"No image at all, you only “know” that you are thinking of the object","No image at all, you only “know” that you are thinking of the object",Clear and lively,"No image at all, you only “know” that you are thinking of the object",Moderately clear and lively,Dim and vague; flat,Moderately clear and lively,Dim and vague; flat,Moderately clear and lively,Dim and vague; flat,21,male,some-college,right,corrected,no,mental rotation based on positioning
giraffe,p2mpwwhb0pg,15,4,68983,4682,stimuli/43_50_R.jpg,43,50,different,j,response,j,TRUE,1,Moderately clear and lively,Clear and lively,Moderately clear and lively,Clear and lively,Moderately clear and lively,Dim and vague; flat,"No image at all, you only “know” that you are thinking of the object","No image at all, you only “know” that you are thinking of the object",Clear and lively,"No image at all, you only “know” that you are thinking of the object",Moderately clear and lively,Dim and vague; flat,Moderately clear and lively,Dim and vague; flat,Moderately clear and lively,Dim and vague; flat,21,male,some-college,right,corrected,no,mental rotation based on positioning
giraffe,p2mpwwhb0pg,18,5,81965,11473,stimuli/19_100_R.jpg,19,100,different,j,response,j,TRUE,1,Moderately clear and lively,Clear and lively,Moderately clear and lively,Clear and lively,Moderately clear and lively,Dim and vague; flat,"No image at all, you only “know” that you are thinking of the object","No image at all, you only “know” that you are thinking of the object",Clear and lively,"No image at all, you only “know” that you are thinking of the object",Moderately clear and lively,Dim and vague; flat,Moderately clear and lively,Dim and vague; flat,Moderately clear and lively,Dim and vague; flat,21,male,some-college,right,corrected,no,mental rotation based on positioning
giraffe,p2mpwwhb0pg,21,6,87573,4100,stimuli/13_100_R.jpg,13,100,different,j,response,j,TRUE,1,Moderately clear and lively,Clear and lively,Moderately clear and lively,Clear and lively,Moderately clear and lively,Dim and vague; flat,"No image at all, you only “know” that you are thinking of the object","No image at all, you only “know” that you are thinking of the object",Clear and lively,"No image at all, you only “know” that you are thinking of the object",Moderately clear and lively,Dim and vague; flat,Moderately clear and lively,Dim and vague; flat,Moderately clear and lively,Dim and vague; flat,21,male,some-college,right,corrected,no,mental rotation based on positioning
giraffe,p2mpwwhb0pg,24,7,93139,4057,stimuli/12_0_R.jpg,12,0,different,j,response,j,TRUE,1,Moderately clear and lively,Clear and lively,Moderately clear and lively,Clear and lively,Moderately clear and lively,Dim and vague; flat,"No image at all, you only “know” that you are thinking of the object","No image at all, you only “know” that you are thinking of the object",Clear and lively,"No image at all, you only “know” that you are thinking of the object",Moderately clear and lively,Dim and vague; flat,Moderately clear and lively,Dim and vague; flat,Moderately clear and lively,Dim and vague; flat,21,male,some-college,right,corrected,no,mental rotation based on positioning
giraffe,p2mpwwhb0pg,27,8,99536,4888,stimuli/5_0.jpg,5,0,same,f,response,f,TRUE,1,Moderately clear and lively,Clear and lively,Moderately clear and lively,Clear and lively,Moderately clear and lively,Dim and vague; flat,"No image at all, you only “know” that you are thinking of the object","No image at all, you only “know” that you are thinking of the object",Clear and lively,"No image at all, you only “know” that you are thinking of the object",Moderately clear and lively,Dim and vague; flat,Moderately clear and lively,Dim and vague; flat,Moderately clear and lively,Dim and vague; flat,21,male,some-college,right,corrected,no,mental rotation based on positioning
giraffe,p2mpwwhb0pg,30,9,103743,2698,stimuli/29_50.jpg,29,50,same,f,response,f,TRUE,1,Moderately clear and lively,Clear and lively,Moderately clear and lively,Clear and lively,Moderately clear and lively,Dim and vague; flat,"No image at all, you only “know” that you are thinking of the object","No image at all, you only “know” that you are thinking of the object",Clear and lively,"No image at all, you only “know” that you are thinking of the object",Moderately clear and lively,Dim and vague; flat,Moderately clear and lively,Dim and vague; flat,Moderately clear and lively,Dim and vague; flat,21,male,some-college,right,corrected,no,mental rotation based on positioning
giraffe,p2mpwwhb0pg,33,10,107669,2418,stimuli/1_150.jpg,1,150,same,f,response,f,TRUE,1,Moderately clear and lively,Clear and lively,Moderately clear and lively,Clear and lively,Moderately clear and lively,Dim and vague; flat,"No image at all, you only “know” that you are thinking of the object","No image at all, you only “know” that you are thinking of the object",Clear and lively,"No image at all, you only “know” that you are thinking of the object",Moderately clear and lively,Dim and vague; flat,Moderately clear and lively,Dim and vague; flat,Moderately clear and lively,Dim and vague; flat,21,male,some-college,right,corrected,no,mental rotation based on positioning
giraffe,p2mpwwhb0pg,36,11,113940,4763,stimuli/39_150.jpg,39,150,same,j,response,f,FALSE,0,Moderately clear and lively,Clear and lively,Moderately clear and lively,Clear and lively,Moderately clear and lively,Dim and vague; flat,"No image at all, you only “know” that you are thinking of the object","No image at all, you only “know” that you are thinking of the object",Clear and lively,"No image at all, you only “know” that you are thinking of the object",Moderately clear and lively,Dim and vague; flat,Moderately clear and lively,Dim and vague; flat,Moderately clear and lively,Dim and vague; flat,21,male,some-college,right,corrected,no,mental rotation based on positioning
giraffe,p2mpwwhb0pg,39,12,118951,3503,stimuli/42_50.jpg,42,50,same,f,response,f,TRUE,1,Moderately clear and lively,Clear and lively,Moderately clear and lively,Clear and lively,Moderately clear and lively,Dim and vague; flat,"No image at all, you only “know” that you are thinking of the object","No image at all, you only “know” that you are thinking of the object",Clear and lively,"No image at all, you only “know” that you are thinking of the object",Moderately clear and lively,Dim and vague; flat,Moderately clear and lively,Dim and vague; flat,Moderately clear and lively,Dim and vague; flat,21,male,some-college,right,corrected,no,mental rotation based on positioning
giraffe,p2mpwwhb0pg,42,13,123237,2779,stimuli/8_50_R.jpg,8,50,different,j,response,j,TRUE,1,Moderately clear and lively,Clear and lively,Moderately clear and lively,Clear and lively,Moderately clear and lively,Dim and vague; flat,"No image at all, you only “know” that you are thinking of the object","No image at all, you only “know” that you are thinking of the object",Clear and lively,"No image at all, you only “know” that you are thinking of the object",Moderately clear and lively,Dim and vague; flat,Moderately clear and lively,Dim and vague; flat,Moderately clear and lively,Dim and vague; flat,21,male,some-college,right,corrected,no,mental rotation based on positioning
giraffe,p2mpwwhb0pg,45,14,128010,3265,stimuli/35_100.jpg,35,100,same,f,response,f,TRUE,1,Moderately clear and lively,Clear and lively,Moderately clear and lively,Clear and lively,Moderately clear and lively,Dim and vague; flat,"No image at all, you only “know” that you are thinking of the object","No image at all, you only “know” that you are thinking of the object",Clear and lively,"No image at all, you only “know” that you are thinking of the object",Moderately clear and lively,Dim and vague; flat,Moderately clear and lively,Dim and vague; flat,Moderately clear and lively,Dim and vague; flat,21,male,some-college,right,corrected,no,mental rotation based on positioning
giraffe,p2mpwwhb0pg,48,15,132480,2961,stimuli/17_150.jpg,17,150,same,f,response,f,TRUE,1,Moderately clear and lively,Clear and lively,Moderately clear and lively,Clear and lively,Moderately clear and lively,Dim and vague; flat,"No image at all, you only “know” that you are thinking of the object","No image at all, you only “know” that you are thinking of the object",Clear and lively,"No image at all, you only “know” that you are thinking of the object",Moderately clear and lively,Dim and vague; flat,Moderately clear and lively,Dim and vague; flat,Moderately clear and lively,Dim and vague; flat,21,male,some-college,right,corrected,no,mental rotation based on positioning
giraffe,p2mpwwhb0pg,51,16,137248,3262,stimuli/20_150.jpg,20,150,same,f,response,f,TRUE,1,Moderately clear and lively,Clear and lively,Moderately clear and lively,Clear and lively,Moderately clear and lively,Dim and vague; flat,"No image at all, you only “know” that you are thinking of the object","No image at all, you only “know” that you are thinking of the object",Clear and lively,"No image at all, you only “know” that you are thinking of the object",Moderately clear and lively,Dim and vague; flat,Moderately clear and lively,Dim and vague; flat,Moderately clear and lively,Dim and vague; flat,21,male,some-college,right,corrected,no,mental rotation based on positioning
giraffe,p2mpwwhb0pg,54,17,140644,1885,stimuli/1_50.jpg,1,50,same,f,response,f,TRUE,1,Moderately clear and lively,Clear and lively,Moderately clear and lively,Clear and lively,Moderately clear and lively,Dim and vague; flat,"No image at all, you only “know” that you are thinking of the object","No image at all, you only “know” that you are thinking of the object",Clear and lively,"No image at all, you only “know” that you are thinking of the object",Moderately clear and lively,Dim and vague; flat,Moderately clear and lively,Dim and vague; flat,Moderately clear and lively,Dim and vague; flat,21,male,some-college,right,corrected,no,mental rotation based on positioning
giraffe,p2mpwwhb0pg,57,18,144155,2002,stimuli/39_100_R.jpg,39,100,different,f,response,j,FALSE,0,Moderately clear and lively,Clear and lively,Moderately clear and lively,Clear and lively,Moderately clear and lively,Dim and vague; flat,"No image at all, you only “know” that you are thinking of the object","No image at all, you only “know” that you are thinking of the object",Clear and lively,"No image at all, you only “know” that you are thinking of the object",Moderately clear and lively,Dim and vague; flat,Moderately clear and lively,Dim and vague; flat,Moderately clear and lively,Dim and vague; flat,21,male,some-college,right,corrected,no,mental rotation based on positioning
giraffe,p2mpwwhb0pg,60,19,147099,1436,stimuli/14_50.jpg,14,50,same,f,response,f,TRUE,1,Moderately clear and lively,Clear and lively,Moderately clear and lively,Clear and lively,Moderately clear and lively,Dim and vague; flat,"No image at all, you only “know” that you are thinking of the object","No image at all, you only “know” that you are thinking of the object",Clear and lively,"No image at all, you only “know” that you are thinking of the object",Moderately clear and lively,Dim and vague; flat,Moderately clear and lively,Dim and vague; flat,Moderately clear and lively,Dim and vague; flat,21,male,some-college,right,corrected,no,mental rotation based on positioning
giraffe,p2mpwwhb0pg,63,20,150414,1807,stimuli/47_150.jpg,47,150,same,f,response,f,TRUE,1,Moderately clear and lively,Clear and lively,Moderately clear and lively,Clear and lively,Moderately clear and lively,Dim and vague; flat,"No image at all, you only “know” that you are thinking of the object","No image at all, you only “know” that you are thinking of the object",Clear and lively,"No image at all, you only “know” that you are thinking of the object",Moderately clear and lively,Dim and vague; flat,Moderately clear and lively,Dim and vague; flat,Moderately clear and lively,Dim and vague; flat,21,male,some-college,right,corrected,no,mental rotation based on positioning
giraffe,p2mpwwhb0pg,66,21,154744,2822,stimuli/6_100_R.jpg,6,100,different,j,response,j,TRUE,1,Moderately clear and lively,Clear and lively,Moderately clear and lively,Clear and lively,Moderately clear and lively,Dim and vague; flat,"No image at all, you only “know” that you are thinking of the object","No image at all, you only “know” that you are thinking of the object",Clear and lively,"No image at all, you only “know” that you are thinking of the object",Moderately clear and lively,Dim and vague; flat,Moderately clear and lively,Dim and vague; flat,Moderately clear and lively,Dim and vague; flat,21,male,some-college,right,corrected,no,mental rotation based on positioning
giraffe,p2mpwwhb0pg,69,22,158403,2151,stimuli/34_100.jpg,34,100,same,f,response,f,TRUE,1,Moderately clear and lively,Clear and lively,Moderately clear and lively,Clear and lively,Moderately clear and lively,Dim and vague; flat,"No image at all, you only “know” that you are thinking of the object","No image at all, you only “know” that you are thinking of the object",Clear and lively,"No image at all, you only “know” that you are thinking of the object",Moderately clear and lively,Dim and vague; flat,Moderately clear and lively,Dim and vague; flat,Moderately clear and lively,Dim and vague; flat,21,male,some-college,right,corrected,no,mental rotation based on positioning
giraffe,p2mpwwhb0pg,72,23,161806,1892,stimuli/3_150_R.jpg,3,150,different,f,response,j,FALSE,0,Moderately clear and lively,Clear and lively,Moderately clear and lively,Clear and lively,Moderately clear and lively,Dim and vague; flat,"No image at all, you only “know” that you are thinking of the object","No image at all, you only “know” that you are thinking of the object",Clear and lively,"No image at all, you only “know” that you are thinking of the object",Moderately clear and lively,Dim and vague; flat,Moderately clear and lively,Dim and vague; flat,Moderately clear and lively,Dim and vague; flat,21,male,some-college,right,corrected,no,mental rotation based on positioning
giraffe,p2mpwwhb0pg,75,24,164568,1254,stimuli/14_50_R.jpg,14,50,different,j,response,j,TRUE,1,Moderately clear and lively,Clear and lively,Moderately clear and lively,Clear and lively,Moderately clear and lively,Dim and vague; flat,"No image at all, you only “know” that you are thinking of the object","No image at all, you only “know” that you are thinking of the object",Clear and lively,"No image at all, you only “know” that you are thinking of the object",Moderately clear and lively,Dim and vague; flat,Moderately clear and lively,Dim and vague; flat,Moderately clear and lively,Dim and vague; flat,21,male,some-college,right,corrected,no,mental rotation based on positioning
giraffe,p2mpwwhb0pg,78,25,167073,1000,stimuli/41_0.jpg,41,0,same,f,response,f,TRUE,1,Moderately clear and lively,Clear and lively,Moderately clear and lively,Clear and lively,Moderately clear and lively,Dim and vague; flat,"No image at all, you only “know” that you are thinking of the object","No image at all, you only “know” that you are thinking of the object",Clear and lively,"No image at all, you only “know” that you are thinking of the object",Moderately clear and lively,Dim and vague; flat,Moderately clear and lively,Dim and vague; flat,Moderately clear and lively,Dim and vague; flat,21,male,some-college,right,corrected,no,mental rotation based on positioning
giraffe,p2mpwwhb0pg,81,26,170911,2331,stimuli/27_100_R.jpg,27,100,different,j,response,j,TRUE,1,Moderately clear and lively,Clear and lively,Moderately clear and lively,Clear and lively,Moderately clear and lively,Dim and vague; flat,"No image at all, you only “know” that you are thinking of the object","No image at all, you only “know” that you are thinking of the object",Clear and lively,"No image at all, you only “know” that you are thinking of the object",Moderately clear and lively,Dim and vague; flat,Moderately clear and lively,Dim and vague; flat,Moderately clear and lively,Dim and vague; flat,21,male,some-college,right,corrected,no,mental rotation based on positioning
giraffe,p2mpwwhb0pg,84,27,173298,879,stimuli/40_0_R.jpg,40,0,different,f,response,j,FALSE,0,Moderately clear and lively,Clear and lively,Moderately clear and lively,Clear and lively,Moderately clear and lively,Dim and vague; flat,"No image at all, you only “know” that you are thinking of the object","No image at all, you only “know” that you are thinking of the object",Clear and lively,"No image at all, you only “know” that you are thinking of the object",Moderately clear and lively,Dim and vague; flat,Moderately clear and lively,Dim and vague; flat,Moderately clear and lively,Dim and vague; flat,21,male,some-college,right,corrected,no,mental rotation based on positioning
giraffe,p2mpwwhb0pg,87,28,176477,1671,stimuli/16_0_R.jpg,16,0,different,j,response,j,TRUE,1,Moderately clear and lively,Clear and lively,Moderately clear and lively,Clear and lively,Moderately clear and lively,Dim and vague; flat,"No image at all, you only “know” that you are thinking of the object","No image at all, you only “know” that you are thinking of the object",Clear and lively,"No image at all, you only “know” that you are thinking of the object",Moderately clear and lively,Dim and vague; flat,Moderately clear and lively,Dim and vague; flat,Moderately clear and lively,Dim and vague; flat,21,male,some-college,right,corrected,no,mental rotation based on positioning
giraffe,p2mpwwhb0pg,90,29,179624,1640,stimuli/43_0_R.jpg,43,0,different,j,response,j,TRUE,1,Moderately clear and lively,Clear and lively,Moderately clear and lively,Clear and lively,Moderately clear and lively,Dim and vague; flat,"No image at all, you only “know” that you are thinking of the object","No image at all, you only “know” that you are thinking of the object",Clear and lively,"No image at all, you only “know” that you are thinking of the object",Moderately clear and lively,Dim and vague; flat,Moderately clear and lively,Dim and vague; flat,Moderately clear and lively,Dim and vague; flat,21,male,some-college,right,corrected,no,mental rotation based on positioning
giraffe,p2mpwwhb0pg,93,30,183808,2677,stimuli/18_100_R.jpg,18,100,different,j,response,j,TRUE,1,Moderately clear and lively,Clear and lively,Moderately clear and lively,Clear and lively,Moderately clear and lively,Dim and vague; flat,"No image at all, you only “know” that you are thinking of the object","No image at all, you only “know” that you are thinking of the object",Clear and lively,"No image at all, you only “know” that you are thinking of the object",Moderately clear and lively,Dim and vague; flat,Moderately clear and lively,Dim and vague; flat,Moderately clear and lively,Dim and vague; flat,21,male,some-college,right,corrected,no,mental rotation based on positioning
giraffe,p2mpwwhb0pg,96,31,187364,2046,stimuli/24_150.jpg,24,150,same,f,response,f,TRUE,1,Moderately clear and lively,Clear and lively,Moderately clear and lively,Clear and lively,Moderately clear and lively,Dim and vague; flat,"No image at all, you only “know” that you are thinking of the object","No image at all, you only “know” that you are thinking of the object",Clear and lively,"No image at all, you only “know” that you are thinking of the object",Moderately clear and lively,Dim and vague; flat,Moderately clear and lively,Dim and vague; flat,Moderately clear and lively,Dim and vague; flat,21,male,some-college,right,corrected,no,mental rotation based on positioning
giraffe,p2mpwwhb0pg,99,32,189801,929,stimuli/24_0.jpg,24,0,same,f,response,f,TRUE,1,Moderately clear and lively,Clear and lively,Moderately clear and lively,Clear and lively,Moderately clear and lively,Dim and vague; flat,"No image at all, you only “know” that you are thinking of the object","No image at all, you only “know” that you are thinking of the object",Clear and lively,"No image at all, you only “know” that you are thinking of the object",Moderately clear and lively,Dim and vague; flat,Moderately clear and lively,Dim and vague; flat,Moderately clear and lively,Dim and vague; flat,21,male,some-college,right,corrected,no,mental rotation based on positioning
giraffe,p2mpwwhb0pg,102,33,192312,1003,stimuli/2_0.jpg,2,0,same,f,response,f,TRUE,1,Moderately clear and lively,Clear and lively,Moderately clear and lively,Clear and lively,Moderately clear and lively,Dim and vague; flat,"No image at all, you only “know” that you are thinking of the object","No image at all, you only “know” that you are thinking of the object",Clear and lively,"No image at all, you only “know” that you are thinking of the object",Moderately clear and lively,Dim and vague; flat,Moderately clear and lively,Dim and vague; flat,Moderately clear and lively,Dim and vague; flat,21,male,some-college,right,corrected,no,mental rotation based on positioning
giraffe,p2mpwwhb0pg,105,34,199771,5950,stimuli/48_100.jpg,48,100,same,f,response,f,TRUE,1,Moderately clear and lively,Clear and lively,Moderately clear and lively,Clear and lively,Moderately clear and lively,Dim and vague; flat,"No image at all, you only “know” that you are thinking of the object","No image at all, you only “know” that you are thinking of the object",Clear and lively,"No image at all, you only “know” that you are thinking of the object",Moderately clear and lively,Dim and vague; flat,Moderately clear and lively,Dim and vague; flat,Moderately clear and lively,Dim and vague; flat,21,male,some-college,right,corrected,no,mental rotation based on positioning
giraffe,p2mpwwhb0pg,108,35,204191,2911,stimuli/11_100_R.jpg,11,100,different,j,response,j,TRUE,1,Moderately clear and lively,Clear and lively,Moderately clear and lively,Clear and lively,Moderately clear and lively,Dim and vague; flat,"No image at all, you only “know” that you are thinking of the object","No image at all, you only “know” that you are thinking of the object",Clear and lively,"No image at all, you only “know” that you are thinking of the object",Moderately clear and lively,Dim and vague; flat,Moderately clear and lively,Dim and vague; flat,Moderately clear and lively,Dim and vague; flat,21,male,some-college,right,corrected,no,mental rotation based on positioning
giraffe,p2mpwwhb0pg,111,36,207752,2052,stimuli/30_50.jpg,30,50,same,f,response,f,TRUE,1,Moderately clear and lively,Clear and lively,Moderately clear and lively,Clear and lively,Moderately clear and lively,Dim and vague; flat,"No image at all, you only “know” that you are thinking of the object","No image at all, you only “know” that you are thinking of the object",Clear and lively,"No image at all, you only “know” that you are thinking of the object",Moderately clear and lively,Dim and vague; flat,Moderately clear and lively,Dim and vague; flat,Moderately clear and lively,Dim and vague; flat,21,male,some-college,right,corrected,no,mental rotation based on positioning
giraffe,p2mpwwhb0pg,114,37,212191,2930,stimuli/8_150_R.jpg,8,150,different,f,response,j,FALSE,0,Moderately clear and lively,Clear and lively,Moderately clear and lively,Clear and lively,Moderately clear and lively,Dim and vague; flat,"No image at all, you only “know” that you are thinking of the object","No image at all, you only “know” that you are thinking of the object",Clear and lively,"No image at all, you only “know” that you are thinking of the object",Moderately clear and lively,Dim and vague; flat,Moderately clear and lively,Dim and vague; flat,Moderately clear and lively,Dim and vague; flat,21,male,some-college,right,corrected,no,mental rotation based on positioning
giraffe,p2mpwwhb0pg,117,38,214789,1091,stimuli/43_0.jpg,43,0,same,f,response,f,TRUE,1,Moderately clear and lively,Clear and lively,Moderately clear and lively,Clear and lively,Moderately clear and lively,Dim and vague; flat,"No image at all, you only “know” that you are thinking of the object","No image at all, you only “know” that you are thinking of the object",Clear and lively,"No image at all, you only “know” that you are thinking of the object",Moderately clear and lively,Dim and vague; flat,Moderately clear and lively,Dim and vague; flat,Moderately clear and lively,Dim and vague; flat,21,male,some-college,right,corrected,no,mental rotation based on positioning
giraffe,p2mpwwhb0pg,120,39,217967,1670,stimuli/24_50_R.jpg,24,50,different,j,response,j,TRUE,1,Moderately clear and lively,Clear and lively,Moderately clear and lively,Clear and lively,Moderately clear and lively,Dim and vague; flat,"No image at all, you only “know” that you are thinking of the object","No image at all, you only “know” that you are thinking of the object",Clear and lively,"No image at all, you only “know” that you are thinking of the object",Moderately clear and lively,Dim and vague; flat,Moderately clear and lively,Dim and vague; flat,Moderately clear and lively,Dim and vague; flat,21,male,some-college,right,corrected,no,mental rotation based on positioning
giraffe,p2mpwwhb0pg,123,40,222618,3142,stimuli/2_100.jpg,2,100,same,f,response,f,TRUE,1,Moderately clear and lively,Clear and lively,Moderately clear and lively,Clear and lively,Moderately clear and lively,Dim and vague; flat,"No image at all, you only “know” that you are thinking of the object","No image at all, you only “know” that you are thinking of the object",Clear and lively,"No image at all, you only “know” that you are thinking of the object",Moderately clear and lively,Dim and vague; flat,Moderately clear and lively,Dim and vague; flat,Moderately clear and lively,Dim and vague; flat,21,male,some-college,right,corrected,no,mental rotation based on positioning
giraffe,p2mpwwhb0pg,126,41,226910,2783,stimuli/24_50.jpg,24,50,same,f,response,f,TRUE,1,Moderately clear and lively,Clear and lively,Moderately clear and lively,Clear and lively,Moderately clear and lively,Dim and vague; flat,"No image at all, you only “know” that you are thinking of the object","No image at all, you only “know” that you are thinking of the object",Clear and lively,"No image at all, you only “know” that you are thinking of the object",Moderately clear and lively,Dim and vague; flat,Moderately clear and lively,Dim and vague; flat,Moderately clear and lively,Dim and vague; flat,21,male,some-college,right,corrected,no,mental rotation based on positioning
giraffe,p2mpwwhb0pg,129,42,231324,2905,stimuli/32_0_R.jpg,32,0,different,j,response,j,TRUE,1,Moderately clear and lively,Clear and lively,Moderately clear and lively,Clear and lively,Moderately clear and lively,Dim and vague; flat,"No image at all, you only “know” that you are thinking of the object","No image at all, you only “know” that you are thinking of the object",Clear and lively,"No image at all, you only “know” that you are thinking of the object",Moderately clear and lively,Dim and vague; flat,Moderately clear and lively,Dim and vague; flat,Moderately clear and lively,Dim and vague; flat,21,male,some-college,right,corrected,no,mental rotation based on positioning
giraffe,p2mpwwhb0pg,132,43,235685,2854,stimuli/15_100.jpg,15,100,same,f,response,f,TRUE,1,Moderately clear and lively,Clear and lively,Moderately clear and lively,Clear and lively,Moderately clear and lively,Dim and vague; flat,"No image at all, you only “know” that you are thinking of the object","No image at all, you only “know” that you are thinking of the object",Clear and lively,"No image at all, you only “know” that you are thinking of the object",Moderately clear and lively,Dim and vague; flat,Moderately clear and lively,Dim and vague; flat,Moderately clear and lively,Dim and vague; flat,21,male,some-college,right,corrected,no,mental rotation based on positioning
giraffe,p2mpwwhb0pg,135,44,240405,3211,stimuli/7_150.jpg,7,150,same,f,response,f,TRUE,1,Moderately clear and lively,Clear and lively,Moderately clear and lively,Clear and lively,Moderately clear and lively,Dim and vague; flat,"No image at all, you only “know” that you are thinking of the object","No image at all, you only “know” that you are thinking of the object",Clear and lively,"No image at all, you only “know” that you are thinking of the object",Moderately clear and lively,Dim and vague; flat,Moderately clear and lively,Dim and vague; flat,Moderately clear and lively,Dim and vague; flat,21,male,some-college,right,corrected,no,mental rotation based on positioning
giraffe,p2mpwwhb0pg,138,45,244101,2188,stimuli/22_150_R.jpg,22,150,different,f,response,j,FALSE,0,Moderately clear and lively,Clear and lively,Moderately clear and lively,Clear and lively,Moderately clear and lively,Dim and vague; flat,"No image at all, you only “know” that you are thinking of the object","No image at all, you only “know” that you are thinking of the object",Clear and lively,"No image at all, you only “know” that you are thinking of the object",Moderately clear and lively,Dim and vague; flat,Moderately clear and lively,Dim and vague; flat,Moderately clear and lively,Dim and vague; flat,21,male,some-college,right,corrected,no,mental rotation based on positioning
giraffe,p2mpwwhb0pg,141,46,248103,2493,stimuli/4_100_R.jpg,4,100,different,j,response,j,TRUE,1,Moderately clear and lively,Clear and lively,Moderately clear and lively,Clear and lively,Moderately clear and lively,Dim and vague; flat,"No image at all, you only “know” that you are thinking of the object","No image at all, you only “know” that you are thinking of the object",Clear and lively,"No image at all, you only “know” that you are thinking of the object",Moderately clear and lively,Dim and vague; flat,Moderately clear and lively,Dim and vague; flat,Moderately clear and lively,Dim and vague; flat,21,male,some-college,right,corrected,no,mental rotation based on positioning
giraffe,p2mpwwhb0pg,144,47,251177,1566,stimuli/21_50_R.jpg,21,50,different,j,response,j,TRUE,1,Moderately clear and lively,Clear and lively,Moderately clear and lively,Clear and lively,Moderately clear and lively,Dim and vague; flat,"No image at all, you only “know” that you are thinking of the object","No image at all, you only “know” that you are thinking of the object",Clear and lively,"No image at all, you only “know” that you are thinking of the object",Moderately clear and lively,Dim and vague; flat,Moderately clear and lively,Dim and vague; flat,Moderately clear and lively,Dim and vague; flat,21,male,some-college,right,corrected,no,mental rotation based on positioning
giraffe,p2mpwwhb0pg,147,48,255342,2658,stimuli/46_150_R.jpg,46,150,different,j,response,j,TRUE,1,Moderately clear and lively,Clear and lively,Moderately clear and lively,Clear and lively,Moderately clear and lively,Dim and vague; flat,"No image at all, you only “know” that you are thinking of the object","No image at all, you only “know” that you are thinking of the object",Clear and lively,"No image at all, you only “know” that you are thinking of the object",Moderately clear and lively,Dim and vague; flat,Moderately clear and lively,Dim and vague; flat,Moderately clear and lively,Dim and vague; flat,21,male,some-college,right,corrected,no,mental rotation based on positioning
giraffe,p2mpwwhb0pg,151,49,322019,35162,stimuli/29_50_R.jpg,29,50,different,j,response,j,TRUE,1,Moderately clear and lively,Clear and lively,Moderately clear and lively,Clear and lively,Moderately clear and lively,Dim and vague; flat,"No image at all, you only “know” that you are thinking of the object","No image at all, you only “know” that you are thinking of the object",Clear and lively,"No image at all, you only “know” that you are thinking of the object",Moderately clear and lively,Dim and vague; flat,Moderately clear and lively,Dim and vague; flat,Moderately clear and lively,Dim and vague; flat,21,male,some-college,right,corrected,no,mental rotation based on positioning
giraffe,p2mpwwhb0pg,154,50,326185,2657,stimuli/46_50.jpg,46,50,same,f,response,f,TRUE,1,Moderately clear and lively,Clear and lively,Moderately clear and lively,Clear and lively,Moderately clear and lively,Dim and vague; flat,"No image at all, you only “know” that you are thinking of the object","No image at all, you only “know” that you are thinking of the object",Clear and lively,"No image at all, you only “know” that you are thinking of the object",Moderately clear and lively,Dim and vague; flat,Moderately clear and lively,Dim and vague; flat,Moderately clear and lively,Dim and vague; flat,21,male,some-college,right,corrected,no,mental rotation based on positioning
giraffe,p2mpwwhb0pg,157,51,328658,964,stimuli/19_0.jpg,19,0,same,f,response,f,TRUE,1,Moderately clear and lively,Clear and lively,Moderately clear and lively,Clear and lively,Moderately clear and lively,Dim and vague; flat,"No image at all, you only “know” that you are thinking of the object","No image at all, you only “know” that you are thinking of the object",Clear and lively,"No image at all, you only “know” that you are thinking of the object",Moderately clear and lively,Dim and vague; flat,Moderately clear and lively,Dim and vague; flat,Moderately clear and lively,Dim and vague; flat,21,male,some-college,right,corrected,no,mental rotation based on positioning
giraffe,p2mpwwhb0pg,160,52,332058,1891,stimuli/25_100.jpg,25,100,same,j,response,f,FALSE,0,Moderately clear and lively,Clear and lively,Moderately clear and lively,Clear and lively,Moderately clear and lively,Dim and vague; flat,"No image at all, you only “know” that you are thinking of the object","No image at all, you only “know” that you are thinking of the object",Clear and lively,"No image at all, you only “know” that you are thinking of the object",Moderately clear and lively,Dim and vague; flat,Moderately clear and lively,Dim and vague; flat,Moderately clear and lively,Dim and vague; flat,21,male,some-college,right,corrected,no,mental rotation based on positioning
giraffe,p2mpwwhb0pg,163,53,335061,1496,stimuli/13_0_R.jpg,13,0,different,j,response,j,TRUE,1,Moderately clear and lively,Clear and lively,Moderately clear and lively,Clear and lively,Moderately clear and lively,Dim and vague; flat,"No image at all, you only “know” that you are thinking of the object","No image at all, you only “know” that you are thinking of the object",Clear and lively,"No image at all, you only “know” that you are thinking of the object",Moderately clear and lively,Dim and vague; flat,Moderately clear and lively,Dim and vague; flat,Moderately clear and lively,Dim and vague; flat,21,male,some-college,right,corrected,no,mental rotation based on positioning
giraffe,p2mpwwhb0pg,166,54,338075,1506,stimuli/19_150_R.jpg,19,150,different,j,response,j,TRUE,1,Moderately clear and lively,Clear and lively,Moderately clear and lively,Clear and lively,Moderately clear and lively,Dim and vague; flat,"No image at all, you only “know” that you are thinking of the object","No image at all, you only “know” that you are thinking of the object",Clear and lively,"No image at all, you only “know” that you are thinking of the object",Moderately clear and lively,Dim and vague; flat,Moderately clear and lively,Dim and vague; flat,Moderately clear and lively,Dim and vague; flat,21,male,some-college,right,corrected,no,mental rotation based on positioning
giraffe,p2mpwwhb0pg,169,55,340701,1117,stimuli/14_0.jpg,14,0,same,f,response,f,TRUE,1,Moderately clear and lively,Clear and lively,Moderately clear and lively,Clear and lively,Moderately clear and lively,Dim and vague; flat,"No image at all, you only “know” that you are thinking of the object","No image at all, you only “know” that you are thinking of the object",Clear and lively,"No image at all, you only “know” that you are thinking of the object",Moderately clear and lively,Dim and vague; flat,Moderately clear and lively,Dim and vague; flat,Moderately clear and lively,Dim and vague; flat,21,male,some-college,right,corrected,no,mental rotation based on positioning
giraffe,p2mpwwhb0pg,172,56,343285,1076,stimuli/24_150_R.jpg,24,150,different,j,response,j,TRUE,1,Moderately clear and lively,Clear and lively,Moderately clear and lively,Clear and lively,Moderately clear and lively,Dim and vague; flat,"No image at all, you only “know” that you are thinking of the object","No image at all, you only “know” that you are thinking of the object",Clear and lively,"No image at all, you only “know” that you are thinking of the object",Moderately clear and lively,Dim and vague; flat,Moderately clear and lively,Dim and vague; flat,Moderately clear and lively,Dim and vague; flat,21,male,some-college,right,corrected,no,mental rotation based on positioning
giraffe,p2mpwwhb0pg,175,57,346125,1332,stimuli/5_150.jpg,5,150,same,j,response,f,FALSE,0,Moderately clear and lively,Clear and lively,Moderately clear and lively,Clear and lively,Moderately clear and lively,Dim and vague; flat,"No image at all, you only “know” that you are thinking of the object","No image at all, you only “know” that you are thinking of the object",Clear and lively,"No image at all, you only “know” that you are thinking of the object",Moderately clear and lively,Dim and vague; flat,Moderately clear and lively,Dim and vague; flat,Moderately clear and lively,Dim and vague; flat,21,male,some-college,right,corrected,no,mental rotation based on positioning
giraffe,p2mpwwhb0pg,178,58,348660,1027,stimuli/13_0.jpg,13,0,same,f,response,f,TRUE,1,Moderately clear and lively,Clear and lively,Moderately clear and lively,Clear and lively,Moderately clear and lively,Dim and vague; flat,"No image at all, you only “know” that you are thinking of the object","No image at all, you only “know” that you are thinking of the object",Clear and lively,"No image at all, you only “know” that you are thinking of the object",Moderately clear and lively,Dim and vague; flat,Moderately clear and lively,Dim and vague; flat,Moderately clear and lively,Dim and vague; flat,21,male,some-college,right,corrected,no,mental rotation based on positioning
giraffe,p2mpwwhb0pg,181,59,351960,1793,stimuli/36_50.jpg,36,50,same,f,response,f,TRUE,1,Moderately clear and lively,Clear and lively,Moderately clear and lively,Clear and lively,Moderately clear and lively,Dim and vague; flat,"No image at all, you only “know” that you are thinking of the object","No image at all, you only “know” that you are thinking of the object",Clear and lively,"No image at all, you only “know” that you are thinking of the object",Moderately clear and lively,Dim and vague; flat,Moderately clear and lively,Dim and vague; flat,Moderately clear and lively,Dim and vague; flat,21,male,some-college,right,corrected,no,mental rotation based on positioning
giraffe,p2mpwwhb0pg,184,60,356244,2777,stimuli/12_150.jpg,12,150,same,j,response,f,FALSE,0,Moderately clear and lively,Clear and lively,Moderately clear and lively,Clear and lively,Moderately clear and lively,Dim and vague; flat,"No image at all, you only “know” that you are thinking of the object","No image at all, you only “know” that you are thinking of the object",Clear and lively,"No image at all, you only “know” that you are thinking of the object",Moderately clear and lively,Dim and vague; flat,Moderately clear and lively,Dim and vague; flat,Moderately clear and lively,Dim and vague; flat,21,male,some-college,right,corrected,no,mental rotation based on positioning
giraffe,p2mpwwhb0pg,187,61,360001,2248,stimuli/23_100.jpg,23,100,same,f,response,f,TRUE,1,Moderately clear and lively,Clear and lively,Moderately clear and lively,Clear and lively,Moderately clear and lively,Dim and vague; flat,"No image at all, you only “know” that you are thinking of the object","No image at all, you only “know” that you are thinking of the object",Clear and lively,"No image at all, you only “know” that you are thinking of the object",Moderately clear and lively,Dim and vague; flat,Moderately clear and lively,Dim and vague; flat,Moderately clear and lively,Dim and vague; flat,21,male,some-college,right,corrected,no,mental rotation based on positioning
giraffe,p2mpwwhb0pg,190,62,362930,1421,stimuli/32_150_R.jpg,32,150,different,j,response,j,TRUE,1,Moderately clear and lively,Clear and lively,Moderately clear and lively,Clear and lively,Moderately clear and lively,Dim and vague; flat,"No image at all, you only “know” that you are thinking of the object","No image at all, you only “know” that you are thinking of the object",Clear and lively,"No image at all, you only “know” that you are thinking of the object",Moderately clear and lively,Dim and vague; flat,Moderately clear and lively,Dim and vague; flat,Moderately clear and lively,Dim and vague; flat,21,male,some-college,right,corrected,no,mental rotation based on positioning
giraffe,p2mpwwhb0pg,193,63,367342,2904,stimuli/10_100.jpg,10,100,same,j,response,f,FALSE,0,Moderately clear and lively,Clear and lively,Moderately clear and lively,Clear and lively,Moderately clear and lively,Dim and vague; flat,"No image at all, you only “know” that you are thinking of the object","No image at all, you only “know” that you are thinking of the object",Clear and lively,"No image at all, you only “know” that you are thinking of the object",Moderately clear and lively,Dim and vague; flat,Moderately clear and lively,Dim and vague; flat,Moderately clear and lively,Dim and vague; flat,21,male,some-college,right,corrected,no,mental rotation based on positioning
giraffe,p2mpwwhb0pg,196,64,370321,1471,stimuli/15_50.jpg,15,50,same,f,response,f,TRUE,1,Moderately clear and lively,Clear and lively,Moderately clear and lively,Clear and lively,Moderately clear and lively,Dim and vague; flat,"No image at all, you only “know” that you are thinking of the object","No image at all, you only “know” that you are thinking of the object",Clear and lively,"No image at all, you only “know” that you are thinking of the object",Moderately clear and lively,Dim and vague; flat,Moderately clear and lively,Dim and vague; flat,Moderately clear and lively,Dim and vague; flat,21,male,some-college,right,corrected,no,mental rotation based on positioning
giraffe,p2mpwwhb0pg,199,65,373677,1847,stimuli/32_50_R.jpg,32,50,different,j,response,j,TRUE,1,Moderately clear and lively,Clear and lively,Moderately clear and lively,Clear and lively,Moderately clear and lively,Dim and vague; flat,"No image at all, you only “know” that you are thinking of the object","No image at all, you only “know” that you are thinking of the object",Clear and lively,"No image at all, you only “know” that you are thinking of the object",Moderately clear and lively,Dim and vague; flat,Moderately clear and lively,Dim and vague; flat,Moderately clear and lively,Dim and vague; flat,21,male,some-college,right,corrected,no,mental rotation based on positioning
giraffe,p2mpwwhb0pg,202,66,376007,822,stimuli/1_0.jpg,1,0,same,f,response,f,TRUE,1,Moderately clear and lively,Clear and lively,Moderately clear and lively,Clear and lively,Moderately clear and lively,Dim and vague; flat,"No image at all, you only “know” that you are thinking of the object","No image at all, you only “know” that you are thinking of the object",Clear and lively,"No image at all, you only “know” that you are thinking of the object",Moderately clear and lively,Dim and vague; flat,Moderately clear and lively,Dim and vague; flat,Moderately clear and lively,Dim and vague; flat,21,male,some-college,right,corrected,no,mental rotation based on positioning
giraffe,p2mpwwhb0pg,205,67,379532,2017,stimuli/31_0_R.jpg,31,0,different,j,response,j,TRUE,1,Moderately clear and lively,Clear and lively,Moderately clear and lively,Clear and lively,Moderately clear and lively,Dim and vague; flat,"No image at all, you only “know” that you are thinking of the object","No image at all, you only “know” that you are thinking of the object",Clear and lively,"No image at all, you only “know” that you are thinking of the object",Moderately clear and lively,Dim and vague; flat,Moderately clear and lively,Dim and vague; flat,Moderately clear and lively,Dim and vague; flat,21,male,some-college,right,corrected,no,mental rotation based on positioning
giraffe,p2mpwwhb0pg,208,68,382352,1310,stimuli/26_100.jpg,26,100,same,f,response,f,TRUE,1,Moderately clear and lively,Clear and lively,Moderately clear and lively,Clear and lively,Moderately clear and lively,Dim and vague; flat,"No image at all, you only “know” that you are thinking of the object","No image at all, you only “know” that you are thinking of the object",Clear and lively,"No image at all, you only “know” that you are thinking of the object",Moderately clear and lively,Dim and vague; flat,Moderately clear and lively,Dim and vague; flat,Moderately clear and lively,Dim and vague; flat,21,male,some-college,right,corrected,no,mental rotation based on positioning
giraffe,p2mpwwhb0pg,211,69,385347,1486,stimuli/3_50_R.jpg,3,50,different,j,response,j,TRUE,1,Moderately clear and lively,Clear and lively,Moderately clear and lively,Clear and lively,Moderately clear and lively,Dim and vague; flat,"No image at all, you only “know” that you are thinking of the object","No image at all, you only “know” that you are thinking of the object",Clear and lively,"No image at all, you only “know” that you are thinking of the object",Moderately clear and lively,Dim and vague; flat,Moderately clear and lively,Dim and vague; flat,Moderately clear and lively,Dim and vague; flat,21,male,some-college,right,corrected,no,mental rotation based on positioning
giraffe,p2mpwwhb0pg,214,70,387907,1053,stimuli/24_0_R.jpg,24,0,different,j,response,j,TRUE,1,Moderately clear and lively,Clear and lively,Moderately clear and lively,Clear and lively,Moderately clear and lively,Dim and vague; flat,"No image at all, you only “know” that you are thinking of the object","No image at all, you only “know” that you are thinking of the object",Clear and lively,"No image at all, you only “know” that you are thinking of the object",Moderately clear and lively,Dim and vague; flat,Moderately clear and lively,Dim and vague; flat,Moderately clear and lively,Dim and vague; flat,21,male,some-college,right,corrected,no,mental rotation based on positioning
giraffe,p2mpwwhb0pg,217,71,391043,1628,stimuli/6_0_R.jpg,6,0,different,j,response,j,TRUE,1,Moderately clear and lively,Clear and lively,Moderately clear and lively,Clear and lively,Moderately clear and lively,Dim and vague; flat,"No image at all, you only “know” that you are thinking of the object","No image at all, you only “know” that you are thinking of the object",Clear and lively,"No image at all, you only “know” that you are thinking of the object",Moderately clear and lively,Dim and vague; flat,Moderately clear and lively,Dim and vague; flat,Moderately clear and lively,Dim and vague; flat,21,male,some-college,right,corrected,no,mental rotation based on positioning
giraffe,p2mpwwhb0pg,220,72,393508,957,stimuli/19_50_R.jpg,19,50,different,f,response,j,FALSE,0,Moderately clear and lively,Clear and lively,Moderately clear and lively,Clear and lively,Moderately clear and lively,Dim and vague; flat,"No image at all, you only “know” that you are thinking of the object","No image at all, you only “know” that you are thinking of the object",Clear and lively,"No image at all, you only “know” that you are thinking of the object",Moderately clear and lively,Dim and vague; flat,Moderately clear and lively,Dim and vague; flat,Moderately clear and lively,Dim and vague; flat,21,male,some-college,right,corrected,no,mental rotation based on positioning
giraffe,p2mpwwhb0pg,223,73,397212,2197,stimuli/28_50.jpg,28,50,same,f,response,f,TRUE,1,Moderately clear and lively,Clear and lively,Moderately clear and lively,Clear and lively,Moderately clear and lively,Dim and vague; flat,"No image at all, you only “know” that you are thinking of the object","No image at all, you only “know” that you are thinking of the object",Clear and lively,"No image at all, you only “know” that you are thinking of the object",Moderately clear and lively,Dim and vague; flat,Moderately clear and lively,Dim and vague; flat,Moderately clear and lively,Dim and vague; flat,21,male,some-college,right,corrected,no,mental rotation based on positioning
giraffe,p2mpwwhb0pg,226,74,401304,2585,stimuli/25_150_R.jpg,25,150,different,j,response,j,TRUE,1,Moderately clear and lively,Clear and lively,Moderately clear and lively,Clear and lively,Moderately clear and lively,Dim and vague; flat,"No image at all, you only “know” that you are thinking of the object","No image at all, you only “know” that you are thinking of the object",Clear and lively,"No image at all, you only “know” that you are thinking of the object",Moderately clear and lively,Dim and vague; flat,Moderately clear and lively,Dim and vague; flat,Moderately clear and lively,Dim and vague; flat,21,male,some-college,right,corrected,no,mental rotation based on positioning
giraffe,p2mpwwhb0pg,229,75,403759,945,stimuli/18_50.jpg,18,50,same,f,response,f,TRUE,1,Moderately clear and lively,Clear and lively,Moderately clear and lively,Clear and lively,Moderately clear and lively,Dim and vague; flat,"No image at all, you only “know” that you are thinking of the object","No image at all, you only “know” that you are thinking of the object",Clear and lively,"No image at all, you only “know” that you are thinking of the object",Moderately clear and lively,Dim and vague; flat,Moderately clear and lively,Dim and vague; flat,Moderately clear and lively,Dim and vague; flat,21,male,some-college,right,corrected,no,mental rotation based on positioning
giraffe,p2mpwwhb0pg,232,76,407782,2515,stimuli/24_100.jpg,24,100,same,f,response,f,TRUE,1,Moderately clear and lively,Clear and lively,Moderately clear and lively,Clear and lively,Moderately clear and lively,Dim and vague; flat,"No image at all, you only “know” that you are thinking of the object","No image at all, you only “know” that you are thinking of the object",Clear and lively,"No image at all, you only “know” that you are thinking of the object",Moderately clear and lively,Dim and vague; flat,Moderately clear and lively,Dim and vague; flat,Moderately clear and lively,Dim and vague; flat,21,male,some-college,right,corrected,no,mental rotation based on positioning
giraffe,p2mpwwhb0pg,235,77,412336,3047,stimuli/7_100.jpg,7,100,same,f,response,f,TRUE,1,Moderately clear and lively,Clear and lively,Moderately clear and lively,Clear and lively,Moderately clear and lively,Dim and vague; flat,"No image at all, you only “know” that you are thinking of the object","No image at all, you only “know” that you are thinking of the object",Clear and lively,"No image at all, you only “know” that you are thinking of the object",Moderately clear and lively,Dim and vague; flat,Moderately clear and lively,Dim and vague; flat,Moderately clear and lively,Dim and vague; flat,21,male,some-college,right,corrected,no,mental rotation based on positioning
giraffe,p2mpwwhb0pg,238,78,415799,1955,stimuli/26_50.jpg,26,50,same,f,response,f,TRUE,1,Moderately clear and lively,Clear and lively,Moderately clear and lively,Clear and lively,Moderately clear and lively,Dim and vague; flat,"No image at all, you only “know” that you are thinking of the object","No image at all, you only “know” that you are thinking of the object",Clear and lively,"No image at all, you only “know” that you are thinking of the object",Moderately clear and lively,Dim and vague; flat,Moderately clear and lively,Dim and vague; flat,Moderately clear and lively,Dim and vague; flat,21,male,some-college,right,corrected,no,mental rotation based on positioning
giraffe,p2mpwwhb0pg,241,79,418722,1417,stimuli/16_100_R.jpg,16,100,different,j,response,j,TRUE,1,Moderately clear and lively,Clear and lively,Moderately clear and lively,Clear and lively,Moderately clear and lively,Dim and vague; flat,"No image at all, you only “know” that you are thinking of the object","No image at all, you only “know” that you are thinking of the object",Clear and lively,"No image at all, you only “know” that you are thinking of the object",Moderately clear and lively,Dim and vague; flat,Moderately clear and lively,Dim and vague; flat,Moderately clear and lively,Dim and vague; flat,21,male,some-college,right,corrected,no,mental rotation based on positioning
giraffe,p2mpwwhb0pg,244,80,421727,1496,stimuli/48_150_R.jpg,48,150,different,j,response,j,TRUE,1,Moderately clear and lively,Clear and lively,Moderately clear and lively,Clear and lively,Moderately clear and lively,Dim and vague; flat,"No image at all, you only “know” that you are thinking of the object","No image at all, you only “know” that you are thinking of the object",Clear and lively,"No image at all, you only “know” that you are thinking of the object",Moderately clear and lively,Dim and vague; flat,Moderately clear and lively,Dim and vague; flat,Moderately clear and lively,Dim and vague; flat,21,male,some-college,right,corrected,no,mental rotation based on positioning
giraffe,p2mpwwhb0pg,247,81,424553,1318,stimuli/28_150_R.jpg,28,150,different,j,response,j,TRUE,1,Moderately clear and lively,Clear and lively,Moderately clear and lively,Clear and lively,Moderately clear and lively,Dim and vague; flat,"No image at all, you only “know” that you are thinking of the object","No image at all, you only “know” that you are thinking of the object",Clear and lively,"No image at all, you only “know” that you are thinking of the object",Moderately clear and lively,Dim and vague; flat,Moderately clear and lively,Dim and vague; flat,Moderately clear and lively,Dim and vague; flat,21,male,some-college,right,corrected,no,mental rotation based on positioning
giraffe,p2mpwwhb0pg,250,82,427733,1672,stimuli/46_50_R.jpg,46,50,different,j,response,j,TRUE,1,Moderately clear and lively,Clear and lively,Moderately clear and lively,Clear and lively,Moderately clear and lively,Dim and vague; flat,"No image at all, you only “know” that you are thinking of the object","No image at all, you only “know” that you are thinking of the object",Clear and lively,"No image at all, you only “know” that you are thinking of the object",Moderately clear and lively,Dim and vague; flat,Moderately clear and lively,Dim and vague; flat,Moderately clear and lively,Dim and vague; flat,21,male,some-college,right,corrected,no,mental rotation based on positioning
giraffe,p2mpwwhb0pg,253,83,430547,1306,stimuli/20_100_R.jpg,20,100,different,f,response,j,FALSE,0,Moderately clear and lively,Clear and lively,Moderately clear and lively,Clear and lively,Moderately clear and lively,Dim and vague; flat,"No image at all, you only “know” that you are thinking of the object","No image at all, you only “know” that you are thinking of the object",Clear and lively,"No image at all, you only “know” that you are thinking of the object",Moderately clear and lively,Dim and vague; flat,Moderately clear and lively,Dim and vague; flat,Moderately clear and lively,Dim and vague; flat,21,male,some-college,right,corrected,no,mental rotation based on positioning
giraffe,p2mpwwhb0pg,256,84,433599,1546,stimuli/34_150.jpg,34,150,same,f,response,f,TRUE,1,Moderately clear and lively,Clear and lively,Moderately clear and lively,Clear and lively,Moderately clear and lively,Dim and vague; flat,"No image at all, you only “know” that you are thinking of the object","No image at all, you only “know” that you are thinking of the object",Clear and lively,"No image at all, you only “know” that you are thinking of the object",Moderately clear and lively,Dim and vague; flat,Moderately clear and lively,Dim and vague; flat,Moderately clear and lively,Dim and vague; flat,21,male,some-college,right,corrected,no,mental rotation based on positioning
giraffe,p2mpwwhb0pg,259,85,436529,1419,stimuli/45_150_R.jpg,45,150,different,j,response,j,TRUE,1,Moderately clear and lively,Clear and lively,Moderately clear and lively,Clear and lively,Moderately clear and lively,Dim and vague; flat,"No image at all, you only “know” that you are thinking of the object","No image at all, you only “know” that you are thinking of the object",Clear and lively,"No image at all, you only “know” that you are thinking of the object",Moderately clear and lively,Dim and vague; flat,Moderately clear and lively,Dim and vague; flat,Moderately clear and lively,Dim and vague; flat,21,male,some-college,right,corrected,no,mental rotation based on positioning
giraffe,p2mpwwhb0pg,262,86,439233,1194,stimuli/25_100_R.jpg,25,100,different,f,response,j,FALSE,0,Moderately clear and lively,Clear and lively,Moderately clear and lively,Clear and lively,Moderately clear and lively,Dim and vague; flat,"No image at all, you only “know” that you are thinking of the object","No image at all, you only “know” that you are thinking of the object",Clear and lively,"No image at all, you only “know” that you are thinking of the object",Moderately clear and lively,Dim and vague; flat,Moderately clear and lively,Dim and vague; flat,Moderately clear and lively,Dim and vague; flat,21,male,some-college,right,corrected,no,mental rotation based on positioning
giraffe,p2mpwwhb0pg,265,87,443169,2429,stimuli/34_150_R.jpg,34,150,different,j,response,j,TRUE,1,Moderately clear and lively,Clear and lively,Moderately clear and lively,Clear and lively,Moderately clear and lively,Dim and vague; flat,"No image at all, you only “know” that you are thinking of the object","No image at all, you only “know” that you are thinking of the object",Clear and lively,"No image at all, you only “know” that you are thinking of the object",Moderately clear and lively,Dim and vague; flat,Moderately clear and lively,Dim and vague; flat,Moderately clear and lively,Dim and vague; flat,21,male,some-college,right,corrected,no,mental rotation based on positioning
giraffe,p2mpwwhb0pg,268,88,446528,1851,stimuli/48_150.jpg,48,150,same,f,response,f,TRUE,1,Moderately clear and lively,Clear and lively,Moderately clear and lively,Clear and lively,Moderately clear and lively,Dim and vague; flat,"No image at all, you only “know” that you are thinking of the object","No image at all, you only “know” that you are thinking of the object",Clear and lively,"No image at all, you only “know” that you are thinking of the object",Moderately clear and lively,Dim and vague; flat,Moderately clear and lively,Dim and vague; flat,Moderately clear and lively,Dim and vague; flat,21,male,some-college,right,corrected,no,mental rotation based on positioning
giraffe,p2mpwwhb0pg,271,89,450254,2218,stimuli/34_0_R.jpg,34,0,different,f,response,j,FALSE,0,Moderately clear and lively,Clear and lively,Moderately clear and lively,Clear and lively,Moderately clear and lively,Dim and vague; flat,"No image at all, you only “know” that you are thinking of the object","No image at all, you only “know” that you are thinking of the object",Clear and lively,"No image at all, you only “know” that you are thinking of the object",Moderately clear and lively,Dim and vague; flat,Moderately clear and lively,Dim and vague; flat,Moderately clear and lively,Dim and vague; flat,21,male,some-college,right,corrected,no,mental rotation based on positioning
giraffe,p2mpwwhb0pg,274,90,452493,732,stimuli/46_0.jpg,46,0,same,f,response,f,TRUE,1,Moderately clear and lively,Clear and lively,Moderately clear and lively,Clear and lively,Moderately clear and lively,Dim and vague; flat,"No image at all, you only “know” that you are thinking of the object","No image at all, you only “know” that you are thinking of the object",Clear and lively,"No image at all, you only “know” that you are thinking of the object",Moderately clear and lively,Dim and vague; flat,Moderately clear and lively,Dim and vague; flat,Moderately clear and lively,Dim and vague; flat,21,male,some-college,right,corrected,no,mental rotation based on positioning
giraffe,p2mpwwhb0pg,277,91,455417,1416,stimuli/18_150.jpg,18,150,same,f,response,f,TRUE,1,Moderately clear and lively,Clear and lively,Moderately clear and lively,Clear and lively,Moderately clear and lively,Dim and vague; flat,"No image at all, you only “know” that you are thinking of the object","No image at all, you only “know” that you are thinking of the object",Clear and lively,"No image at all, you only “know” that you are thinking of the object",Moderately clear and lively,Dim and vague; flat,Moderately clear and lively,Dim and vague; flat,Moderately clear and lively,Dim and vague; flat,21,male,some-college,right,corrected,no,mental rotation based on positioning
giraffe,p2mpwwhb0pg,280,92,457712,787,stimuli/29_0.jpg,29,0,same,f,response,f,TRUE,1,Moderately clear and lively,Clear and lively,Moderately clear and lively,Clear and lively,Moderately clear and lively,Dim and vague; flat,"No image at all, you only “know” that you are thinking of the object","No image at all, you only “know” that you are thinking of the object",Clear and lively,"No image at all, you only “know” that you are thinking of the object",Moderately clear and lively,Dim and vague; flat,Moderately clear and lively,Dim and vague; flat,Moderately clear and lively,Dim and vague; flat,21,male,some-college,right,corrected,no,mental rotation based on positioning
giraffe,p2mpwwhb0pg,283,93,460635,1414,stimuli/8_100_R.jpg,8,100,different,j,response,j,TRUE,1,Moderately clear and lively,Clear and lively,Moderately clear and lively,Clear and lively,Moderately clear and lively,Dim and vague; flat,"No image at all, you only “know” that you are thinking of the object","No image at all, you only “know” that you are thinking of the object",Clear and lively,"No image at all, you only “know” that you are thinking of the object",Moderately clear and lively,Dim and vague; flat,Moderately clear and lively,Dim and vague; flat,Moderately clear and lively,Dim and vague; flat,21,male,some-college,right,corrected,no,mental rotation based on positioning
giraffe,p2mpwwhb0pg,286,94,463769,1627,stimuli/1_100.jpg,1,100,same,f,response,f,TRUE,1,Moderately clear and lively,Clear and lively,Moderately clear and lively,Clear and lively,Moderately clear and lively,Dim and vague; flat,"No image at all, you only “know” that you are thinking of the object","No image at all, you only “know” that you are thinking of the object",Clear and lively,"No image at all, you only “know” that you are thinking of the object",Moderately clear and lively,Dim and vague; flat,Moderately clear and lively,Dim and vague; flat,Moderately clear and lively,Dim and vague; flat,21,male,some-college,right,corrected,no,mental rotation based on positioning
giraffe,p2mpwwhb0pg,289,95,466236,959,stimuli/19_0_R.jpg,19,0,different,f,response,j,FALSE,0,Moderately clear and lively,Clear and lively,Moderately clear and lively,Clear and lively,Moderately clear and lively,Dim and vague; flat,"No image at all, you only “know” that you are thinking of the object","No image at all, you only “know” that you are thinking of the object",Clear and lively,"No image at all, you only “know” that you are thinking of the object",Moderately clear and lively,Dim and vague; flat,Moderately clear and lively,Dim and vague; flat,Moderately clear and lively,Dim and vague; flat,21,male,some-college,right,corrected,no,mental rotation based on positioning
giraffe,p2mpwwhb0pg,292,96,470554,2810,stimuli/17_50_R.jpg,17,50,different,j,response,j,TRUE,1,Moderately clear and lively,Clear and lively,Moderately clear and lively,Clear and lively,Moderately clear and lively,Dim and vague; flat,"No image at all, you only “know” that you are thinking of the object","No image at all, you only “know” that you are thinking of the object",Clear and lively,"No image at all, you only “know” that you are thinking of the object",Moderately clear and lively,Dim and vague; flat,Moderately clear and lively,Dim and vague; flat,Moderately clear and lively,Dim and vague; flat,21,male,some-college,right,corrected,no,mental rotation based on positioning
cheetah,p2snqdorn1d,6,1,27515,9957,stimuli/29_0_R.jpg,29,0,different,j,response,j,TRUE,1,Clear and lively,Moderately clear and lively,Moderately clear and lively,Clear and lively,Clear and lively,Clear and lively,Clear and lively,Clear and lively,Moderately clear and lively,Dim and vague; flat,Moderately clear and lively,Perfectly clear and lively as real seeing,Moderately clear and lively,Dim and vague; flat,Moderately clear and lively,Clear and lively,24,male,bachelors,right,corrected,none.,My mental rotation of objects or ability to imagine things clearly.
cheetah,p2snqdorn1d,9,2,36276,7251,stimuli/45_100_R.jpg,45,100,different,j,response,j,TRUE,1,Clear and lively,Moderately clear and lively,Moderately clear and lively,Clear and lively,Clear and lively,Clear and lively,Clear and lively,Clear and lively,Moderately clear and lively,Dim and vague; flat,Moderately clear and lively,Perfectly clear and lively as real seeing,Moderately clear and lively,Dim and vague; flat,Moderately clear and lively,Clear and lively,24,male,bachelors,right,corrected,none.,My mental rotation of objects or ability to imagine things clearly.
cheetah,p2snqdorn1d,12,3,44019,6235,stimuli/32_100_R.jpg,32,100,different,f,response,j,FALSE,0,Clear and lively,Moderately clear and lively,Moderately clear and lively,Clear and lively,Clear and lively,Clear and lively,Clear and lively,Clear and lively,Moderately clear and lively,Dim and vague; flat,Moderately clear and lively,Perfectly clear and lively as real seeing,Moderately clear and lively,Dim and vague; flat,Moderately clear and lively,Clear and lively,24,male,bachelors,right,corrected,none.,My mental rotation of objects or ability to imagine things clearly.
cheetah,p2snqdorn1d,15,4,48141,2613,stimuli/34_150.jpg,34,150,same,j,response,f,FALSE,0,Clear and lively,Moderately clear and lively,Moderately clear and lively,Clear and lively,Clear and lively,Clear and lively,Clear and lively,Clear and lively,Moderately clear and lively,Dim and vague; flat,Moderately clear and lively,Perfectly clear and lively as real seeing,Moderately clear and lively,Dim and vague; flat,Moderately clear and lively,Clear and lively,24,male,bachelors,right,corrected,none.,My mental rotation of objects or ability to imagine things clearly.
cheetah,p2snqdorn1d,18,5,50770,1121,stimuli/32_0.jpg,32,0,same,f,response,f,TRUE,1,Clear and lively,Moderately clear and lively,Moderately clear and lively,Clear and lively,Clear and lively,Clear and lively,Clear and lively,Clear and lively,Moderately clear and lively,Dim and vague; flat,Moderately clear and lively,Perfectly clear and lively as real seeing,Moderately clear and lively,Dim and vague; flat,Moderately clear and lively,Clear and lively,24,male,bachelors,right,corrected,none.,My mental rotation of objects or ability to imagine things clearly.
cheetah,p2snqdorn1d,21,6,54822,2543,stimuli/18_100.jpg,18,100,same,f,response,f,TRUE,1,Clear and lively,Moderately clear and lively,Moderately clear and lively,Clear and lively,Clear and lively,Clear and lively,Clear and lively,Clear and lively,Moderately clear and lively,Dim and vague; flat,Moderately clear and lively,Perfectly clear and lively as real seeing,Moderately clear and lively,Dim and vague; flat,Moderately clear and lively,Clear and lively,24,male,bachelors,right,corrected,none.,My mental rotation of objects or ability to imagine things clearly.
cheetah,p2snqdorn1d,24,7,57291,959,stimuli/33_0.jpg,33,0,same,f,response,f,TRUE,1,Clear and lively,Moderately clear and lively,Moderately clear and lively,Clear and lively,Clear and lively,Clear and lively,Clear and lively,Clear and lively,Moderately clear and lively,Dim and vague; flat,Moderately clear and lively,Perfectly clear and lively as real seeing,Moderately clear and lively,Dim and vague; flat,Moderately clear and lively,Clear and lively,24,male,bachelors,right,corrected,none.,My mental rotation of objects or ability to imagine things clearly.
cheetah,p2snqdorn1d,27,8,63584,4784,stimuli/37_150.jpg,37,150,same,f,response,f,TRUE,1,Clear and lively,Moderately clear and lively,Moderately clear and lively,Clear and lively,Clear and lively,Clear and lively,Clear and lively,Clear and lively,Moderately clear and lively,Dim and vague; flat,Moderately clear and lively,Perfectly clear and lively as real seeing,Moderately clear and lively,Dim and vague; flat,Moderately clear and lively,Clear and lively,24,male,bachelors,right,corrected,none.,My mental rotation of objects or ability to imagine things clearly.
cheetah,p2snqdorn1d,30,9,66957,1866,stimuli/1_100.jpg,1,100,same,f,response,f,TRUE,1,Clear and lively,Moderately clear and lively,Moderately clear and lively,Clear and lively,Clear and lively,Clear and lively,Clear and lively,Clear and lively,Moderately clear and lively,Dim and vague; flat,Moderately clear and lively,Perfectly clear and lively as real seeing,Moderately clear and lively,Dim and vague; flat,Moderately clear and lively,Clear and lively,24,male,bachelors,right,corrected,none.,My mental rotation of objects or ability to imagine things clearly.
cheetah,p2snqdorn1d,33,10,70512,2045,stimuli/6_100.jpg,6,100,same,f,response,f,TRUE,1,Clear and lively,Moderately clear and lively,Moderately clear and lively,Clear and lively,Clear and lively,Clear and lively,Clear and lively,Clear and lively,Moderately clear and lively,Dim and vague; flat,Moderately clear and lively,Perfectly clear and lively as real seeing,Moderately clear and lively,Dim and vague; flat,Moderately clear and lively,Clear and lively,24,male,bachelors,right,corrected,none.,My mental rotation of objects or ability to imagine things clearly.
cheetah,p2snqdorn1d,36,11,74371,2350,stimuli/34_100.jpg,34,100,same,f,response,f,TRUE,1,Clear and lively,Moderately clear and lively,Moderately clear and lively,Clear and lively,Clear and lively,Clear and lively,Clear and lively,Clear and lively,Moderately clear and lively,Dim and vague; flat,Moderately clear and lively,Perfectly clear and lively as real seeing,Moderately clear and lively,Dim and vague; flat,Moderately clear and lively,Clear and lively,24,male,bachelors,right,corrected,none.,My mental rotation of objects or ability to imagine things clearly.
cheetah,p2snqdorn1d,39,12,77181,1303,stimuli/47_0_R.jpg,47,0,different,j,response,j,TRUE,1,Clear and lively,Moderately clear and lively,Moderately clear and lively,Clear and lively,Clear and lively,Clear and lively,Clear and lively,Clear and lively,Moderately clear and lively,Dim and vague; flat,Moderately clear and lively,Perfectly clear and lively as real seeing,Moderately clear and lively,Dim and vague; flat,Moderately clear and lively,Clear and lively,24,male,bachelors,right,corrected,none.,My mental rotation of objects or ability to imagine things clearly.
cheetah,p2snqdorn1d,42,13,81542,2852,stimuli/14_150_R.jpg,14,150,different,j,response,j,TRUE,1,Clear and lively,Moderately clear and lively,Moderately clear and lively,Clear and lively,Clear and lively,Clear and lively,Clear and lively,Clear and lively,Moderately clear and lively,Dim and vague; flat,Moderately clear and lively,Perfectly clear and lively as real seeing,Moderately clear and lively,Dim and vague; flat,Moderately clear and lively,Clear and lively,24,male,bachelors,right,corrected,none.,My mental rotation of objects or ability to imagine things clearly.
cheetah,p2snqdorn1d,45,14,84542,1494,stimuli/1_150.jpg,1,150,same,f,response,f,TRUE,1,Clear and lively,Moderately clear and lively,Moderately clear and lively,Clear and lively,Clear and lively,Clear and lively,Clear and lively,Clear and lively,Moderately clear and lively,Dim and vague; flat,Moderately clear and lively,Perfectly clear and lively as real seeing,Moderately clear and lively,Dim and vague; flat,Moderately clear and lively,Clear and lively,24,male,bachelors,right,corrected,none.,My mental rotation of objects or ability to imagine things clearly.
cheetah,p2snqdorn1d,48,15,87620,1569,stimuli/40_100_R.jpg,40,100,different,j,response,j,TRUE,1,Clear and lively,Moderately clear and lively,Moderately clear and lively,Clear and lively,Clear and lively,Clear and lively,Clear and lively,Clear and lively,Moderately clear and lively,Dim and vague; flat,Moderately clear and lively,Perfectly clear and lively as real seeing,Moderately clear and lively,Dim and vague; flat,Moderately clear and lively,Clear and lively,24,male,bachelors,right,corrected,none.,My mental rotation of objects or ability to imagine things clearly.
cheetah,p2snqdorn1d,51,16,90131,1002,stimuli/21_50_R.jpg,21,50,different,j,response,j,TRUE,1,Clear and lively,Moderately clear and lively,Moderately clear and lively,Clear and lively,Clear and lively,Clear and lively,Clear and lively,Clear and lively,Moderately clear and lively,Dim and vague; flat,Moderately clear and lively,Perfectly clear and lively as real seeing,Moderately clear and lively,Dim and vague; flat,Moderately clear and lively,Clear and lively,24,male,bachelors,right,corrected,none.,My mental rotation of objects or ability to imagine things clearly.
cheetah,p2snqdorn1d,54,17,93122,1426,stimuli/38_50.jpg,38,50,same,f,response,f,TRUE,1,Clear and lively,Moderately clear and lively,Moderately clear and lively,Clear and lively,Clear and lively,Clear and lively,Clear and lively,Clear and lively,Moderately clear and lively,Dim and vague; flat,Moderately clear and lively,Perfectly clear and lively as real seeing,Moderately clear and lively,Dim and vague; flat,Moderately clear and lively,Clear and lively,24,male,bachelors,right,corrected,none.,My mental rotation of objects or ability to imagine things clearly.
cheetah,p2snqdorn1d,57,18,95560,930,stimuli/44_50.jpg,44,50,same,f,response,f,TRUE,1,Clear and lively,Moderately clear and lively,Moderately clear and lively,Clear and lively,Clear and lively,Clear and lively,Clear and lively,Clear and lively,Moderately clear and lively,Dim and vague; flat,Moderately clear and lively,Perfectly clear and lively as real seeing,Moderately clear and lively,Dim and vague; flat,Moderately clear and lively,Clear and lively,24,male,bachelors,right,corrected,none.,My mental rotation of objects or ability to imagine things clearly.
cheetah,p2snqdorn1d,60,19,98296,1229,stimuli/33_0_R.jpg,33,0,different,j,response,j,TRUE,1,Clear and lively,Moderately clear and lively,Moderately clear and lively,Clear and lively,Clear and lively,Clear and lively,Clear and lively,Clear and lively,Moderately clear and lively,Dim and vague; flat,Moderately clear and lively,Perfectly clear and lively as real seeing,Moderately clear and lively,Dim and vague; flat,Moderately clear and lively,Clear and lively,24,male,bachelors,right,corrected,none.,My mental rotation of objects or ability to imagine things clearly.
cheetah,p2snqdorn1d,63,20,102651,2847,stimuli/12_150.jpg,12,150,same,f,response,f,TRUE,1,Clear and lively,Moderately clear and lively,Moderately clear and lively,Clear and lively,Clear and lively,Clear and lively,Clear and lively,Clear and lively,Moderately clear and lively,Dim and vague; flat,Moderately clear and lively,Perfectly clear and lively as real seeing,Moderately clear and lively,Dim and vague; flat,Moderately clear and lively,Clear and lively,24,male,bachelors,right,corrected,none.,My mental rotation of objects or ability to imagine things clearly.
cheetah,p2snqdorn1d,66,21,105104,945,stimuli/4_0.jpg,4,0,same,f,response,f,TRUE,1,Clear and lively,Moderately clear and lively,Moderately clear and lively,Clear and lively,Clear and lively,Clear and lively,Clear and lively,Clear and lively,Moderately clear and lively,Dim and vague; flat,Moderately clear and lively,Perfectly clear and lively as real seeing,Moderately clear and lively,Dim and vague; flat,Moderately clear and lively,Clear and lively,24,male,bachelors,right,corrected,none.,My mental rotation of objects or ability to imagine things clearly.
cheetah,p2snqdorn1d,69,22,107504,891,stimuli/36_50_R.jpg,36,50,different,j,response,j,TRUE,1,Clear and lively,Moderately clear and lively,Moderately clear and lively,Clear and lively,Clear and lively,Clear and lively,Clear and lively,Clear and lively,Moderately clear and lively,Dim and vague; flat,Moderately clear and lively,Perfectly clear and lively as real seeing,Moderately clear and lively,Dim and vague; flat,Moderately clear and lively,Clear and lively,24,male,bachelors,right,corrected,none.,My mental rotation of objects or ability to imagine things clearly.
cheetah,p2snqdorn1d,72,23,111004,1992,stimuli/17_100.jpg,17,100,same,j,response,f,FALSE,0,Clear and lively,Moderately clear and lively,Moderately clear and lively,Clear and lively,Clear and lively,Clear and lively,Clear and lively,Clear and lively,Moderately clear and lively,Dim and vague; flat,Moderately clear and lively,Perfectly clear and lively as real seeing,Moderately clear and lively,Dim and vague; flat,Moderately clear and lively,Clear and lively,24,male,bachelors,right,corrected,none.,My mental rotation of objects or ability to imagine things clearly.
cheetah,p2snqdorn1d,75,24,114702,2192,stimuli/47_150_R.jpg,47,150,different,j,response,j,TRUE,1,Clear and lively,Moderately clear and lively,Moderately clear and lively,Clear and lively,Clear and lively,Clear and lively,Clear and lively,Clear and lively,Moderately clear and lively,Dim and vague; flat,Moderately clear and lively,Perfectly clear and lively as real seeing,Moderately clear and lively,Dim and vague; flat,Moderately clear and lively,Clear and lively,24,male,bachelors,right,corrected,none.,My mental rotation of objects or ability to imagine things clearly.
cheetah,p2snqdorn1d,78,25,117251,1039,stimuli/46_150.jpg,46,150,same,f,response,f,TRUE,1,Clear and lively,Moderately clear and lively,Moderately clear and lively,Clear and lively,Clear and lively,Clear and lively,Clear and lively,Clear and lively,Moderately clear and lively,Dim and vague; flat,Moderately clear and lively,Perfectly clear and lively as real seeing,Moderately clear and lively,Dim and vague; flat,Moderately clear and lively,Clear and lively,24,male,bachelors,right,corrected,none.,My mental rotation of objects or ability to imagine things clearly.
cheetah,p2snqdorn1d,81,26,122590,3831,stimuli/7_50_R.jpg,7,50,different,j,response,j,TRUE,1,Clear and lively,Moderately clear and lively,Moderately clear and lively,Clear and lively,Clear and lively,Clear and lively,Clear and lively,Clear and lively,Moderately clear and lively,Dim and vague; flat,Moderately clear and lively,Perfectly clear and lively as real seeing,Moderately clear and lively,Dim and vague; flat,Moderately clear and lively,Clear and lively,24,male,bachelors,right,corrected,none.,My mental rotation of objects or ability to imagine things clearly.
cheetah,p2snqdorn1d,84,27,126324,2226,stimuli/28_0_R.jpg,28,0,different,j,response,j,TRUE,1,Clear and lively,Moderately clear and lively,Moderately clear and lively,Clear and lively,Clear and lively,Clear and lively,Clear and lively,Clear and lively,Moderately clear and lively,Dim and vague; flat,Moderately clear and lively,Perfectly clear and lively as real seeing,Moderately clear and lively,Dim and vague; flat,Moderately clear and lively,Clear and lively,24,male,bachelors,right,corrected,none.,My mental rotation of objects or ability to imagine things clearly.
cheetah,p2snqdorn1d,87,28,130093,2261,stimuli/38_150.jpg,38,150,same,f,response,f,TRUE,1,Clear and lively,Moderately clear and lively,Moderately clear and lively,Clear and lively,Clear and lively,Clear and lively,Clear and lively,Clear and lively,Moderately clear and lively,Dim and vague; flat,Moderately clear and lively,Perfectly clear and lively as real seeing,Moderately clear and lively,Dim and vague; flat,Moderately clear and lively,Clear and lively,24,male,bachelors,right,corrected,none.,My mental rotation of objects or ability to imagine things clearly.
cheetah,p2snqdorn1d,90,29,135714,4113,stimuli/12_150_R.jpg,12,150,different,j,response,j,TRUE,1,Clear and lively,Moderately clear and lively,Moderately clear and lively,Clear and lively,Clear and lively,Clear and lively,Clear and lively,Clear and lively,Moderately clear and lively,Dim and vague; flat,Moderately clear and lively,Perfectly clear and lively as real seeing,Moderately clear and lively,Dim and vague; flat,Moderately clear and lively,Clear and lively,24,male,bachelors,right,corrected,none.,My mental rotation of objects or ability to imagine things clearly.
cheetah,p2snqdorn1d,93,30,138269,1047,stimuli/8_0_R.jpg,8,0,different,j,response,j,TRUE,1,Clear and lively,Moderately clear and lively,Moderately clear and lively,Clear and lively,Clear and lively,Clear and lively,Clear and lively,Clear and lively,Moderately clear and lively,Dim and vague; flat,Moderately clear and lively,Perfectly clear and lively as real seeing,Moderately clear and lively,Dim and vague; flat,Moderately clear and lively,Clear and lively,24,male,bachelors,right,corrected,none.,My mental rotation of objects or ability to imagine things clearly.
cheetah,p2snqdorn1d,96,31,141501,1723,stimuli/3_50.jpg,3,50,same,f,response,f,TRUE,1,Clear and lively,Moderately clear and lively,Moderately clear and lively,Clear and lively,Clear and lively,Clear and lively,Clear and lively,Clear and lively,Moderately clear and lively,Dim and vague; flat,Moderately clear and lively,Perfectly clear and lively as real seeing,Moderately clear and lively,Dim and vague; flat,Moderately clear and lively,Clear and lively,24,male,bachelors,right,corrected,none.,My mental rotation of objects or ability to imagine things clearly.
cheetah,p2snqdorn1d,99,32,144103,1094,stimuli/2_0_R.jpg,2,0,different,j,response,j,TRUE,1,Clear and lively,Moderately clear and lively,Moderately clear and lively,Clear and lively,Clear and lively,Clear and lively,Clear and lively,Clear and lively,Moderately clear and lively,Dim and vague; flat,Moderately clear and lively,Perfectly clear and lively as real seeing,Moderately clear and lively,Dim and vague; flat,Moderately clear and lively,Clear and lively,24,male,bachelors,right,corrected,none.,My mental rotation of objects or ability to imagine things clearly.
cheetah,p2snqdorn1d,102,33,147691,2079,stimuli/27_150.jpg,27,150,same,f,response,f,TRUE,1,Clear and lively,Moderately clear and lively,Moderately clear and lively,Clear and lively,Clear and lively,Clear and lively,Clear and lively,Clear and lively,Moderately clear and lively,Dim and vague; flat,Moderately clear and lively,Perfectly clear and lively as real seeing,Moderately clear and lively,Dim and vague; flat,Moderately clear and lively,Clear and lively,24,male,bachelors,right,corrected,none.,My mental rotation of objects or ability to imagine things clearly.
cheetah,p2snqdorn1d,105,34,156756,7551,stimuli/11_150_R.jpg,11,150,different,j,response,j,TRUE,1,Clear and lively,Moderately clear and lively,Moderately clear and lively,Clear and lively,Clear and lively,Clear and lively,Clear and lively,Clear and lively,Moderately clear and lively,Dim and vague; flat,Moderately clear and lively,Perfectly clear and lively as real seeing,Moderately clear and lively,Dim and vague; flat,Moderately clear and lively,Clear and lively,24,male,bachelors,right,corrected,none.,My mental rotation of objects or ability to imagine things clearly.
cheetah,p2snqdorn1d,108,35,160266,2002,stimuli/32_150_R.jpg,32,150,different,j,response,j,TRUE,1,Clear and lively,Moderately clear and lively,Moderately clear and lively,Clear and lively,Clear and lively,Clear and lively,Clear and lively,Clear and lively,Moderately clear and lively,Dim and vague; flat,Moderately clear and lively,Perfectly clear and lively as real seeing,Moderately clear and lively,Dim and vague; flat,Moderately clear and lively,Clear and lively,24,male,bachelors,right,corrected,none.,My mental rotation of objects or ability to imagine things clearly.
cheetah,p2snqdorn1d,111,36,164609,2835,stimuli/35_0_R.jpg,35,0,different,j,response,j,TRUE,1,Clear and lively,Moderately clear and lively,Moderately clear and lively,Clear and lively,Clear and lively,Clear and lively,Clear and lively,Clear and lively,Moderately clear and lively,Dim and vague; flat,Moderately clear and lively,Perfectly clear and lively as real seeing,Moderately clear and lively,Dim and vague; flat,Moderately clear and lively,Clear and lively,24,male,bachelors,right,corrected,none.,My mental rotation of objects or ability to imagine things clearly.
cheetah,p2snqdorn1d,114,37,167743,1626,stimuli/26_0_R.jpg,26,0,different,j,response,j,TRUE,1,Clear and lively,Moderately clear and lively,Moderately clear and lively,Clear and lively,Clear and lively,Clear and lively,Clear and lively,Clear and lively,Moderately clear and lively,Dim and vague; flat,Moderately clear and lively,Perfectly clear and lively as real seeing,Moderately clear and lively,Dim and vague; flat,Moderately clear and lively,Clear and lively,24,male,bachelors,right,corrected,none.,My mental rotation of objects or ability to imagine things clearly.
cheetah,p2snqdorn1d,117,38,171222,2071,stimuli/33_150_R.jpg,33,150,different,j,response,j,TRUE,1,Clear and lively,Moderately clear and lively,Moderately clear and lively,Clear and lively,Clear and lively,Clear and lively,Clear and lively,Clear and lively,Moderately clear and lively,Dim and vague; flat,Moderately clear and lively,Perfectly clear and lively as real seeing,Moderately clear and lively,Dim and vague; flat,Moderately clear and lively,Clear and lively,24,male,bachelors,right,corrected,none.,My mental rotation of objects or ability to imagine things clearly.
cheetah,p2snqdorn1d,120,39,173744,1013,stimuli/40_50_R.jpg,40,50,different,j,response,j,TRUE,1,Clear and lively,Moderately clear and lively,Moderately clear and lively,Clear and lively,Clear and lively,Clear and lively,Clear and lively,Clear and lively,Moderately clear and lively,Dim and vague; flat,Moderately clear and lively,Perfectly clear and lively as real seeing,Moderately clear and lively,Dim and vague; flat,Moderately clear and lively,Clear and lively,24,male,bachelors,right,corrected,none.,My mental rotation of objects or ability to imagine things clearly.
cheetah,p2snqdorn1d,123,40,176186,935,stimuli/43_100.jpg,43,100,same,f,response,f,TRUE,1,Clear and lively,Moderately clear and lively,Moderately clear and lively,Clear and lively,Clear and lively,Clear and lively,Clear and lively,Clear and lively,Moderately clear and lively,Dim and vague; flat,Moderately clear and lively,Perfectly clear and lively as real seeing,Moderately clear and lively,Dim and vague; flat,Moderately clear and lively,Clear and lively,24,male,bachelors,right,corrected,none.,My mental rotation of objects or ability to imagine things clearly.
cheetah,p2snqdorn1d,126,41,180174,2479,stimuli/17_0.jpg,17,0,same,f,response,f,TRUE,1,Clear and lively,Moderately clear and lively,Moderately clear and lively,Clear and lively,Clear and lively,Clear and lively,Clear and lively,Clear and lively,Moderately clear and lively,Dim and vague; flat,Moderately clear and lively,Perfectly clear and lively as real seeing,Moderately clear and lively,Dim and vague; flat,Moderately clear and lively,Clear and lively,24,male,bachelors,right,corrected,none.,My mental rotation of objects or ability to imagine things clearly.
cheetah,p2snqdorn1d,129,42,184491,2809,stimuli/34_50.jpg,34,50,same,f,response,f,TRUE,1,Clear and lively,Moderately clear and lively,Moderately clear and lively,Clear and lively,Clear and lively,Clear and lively,Clear and lively,Clear and lively,Moderately clear and lively,Dim and vague; flat,Moderately clear and lively,Perfectly clear and lively as real seeing,Moderately clear and lively,Dim and vague; flat,Moderately clear and lively,Clear and lively,24,male,bachelors,right,corrected,none.,My mental rotation of objects or ability to imagine things clearly.
cheetah,p2snqdorn1d,132,43,187458,1460,stimuli/19_50_R.jpg,19,50,different,f,response,j,FALSE,0,Clear and lively,Moderately clear and lively,Moderately clear and lively,Clear and lively,Clear and lively,Clear and lively,Clear and lively,Clear and lively,Moderately clear and lively,Dim and vague; flat,Moderately clear and lively,Perfectly clear and lively as real seeing,Moderately clear and lively,Dim and vague; flat,Moderately clear and lively,Clear and lively,24,male,bachelors,right,corrected,none.,My mental rotation of objects or ability to imagine things clearly.
cheetah,p2snqdorn1d,135,44,190712,1746,stimuli/4_100_R.jpg,4,100,different,j,response,j,TRUE,1,Clear and lively,Moderately clear and lively,Moderately clear and lively,Clear and lively,Clear and lively,Clear and lively,Clear and lively,Clear and lively,Moderately clear and lively,Dim and vague; flat,Moderately clear and lively,Perfectly clear and lively as real seeing,Moderately clear and lively,Dim and vague; flat,Moderately clear and lively,Clear and lively,24,male,bachelors,right,corrected,none.,My mental rotation of objects or ability to imagine things clearly.
cheetah,p2snqdorn1d,138,45,193143,924,stimuli/46_0.jpg,46,0,same,f,response,f,TRUE,1,Clear and lively,Moderately clear and lively,Moderately clear and lively,Clear and lively,Clear and lively,Clear and lively,Clear and lively,Clear and lively,Moderately clear and lively,Dim and vague; flat,Moderately clear and lively,Perfectly clear and lively as real seeing,Moderately clear and lively,Dim and vague; flat,Moderately clear and lively,Clear and lively,24,male,bachelors,right,corrected,none.,My mental rotation of objects or ability to imagine things clearly.
cheetah,p2snqdorn1d,141,46,195230,579,stimuli/47_0.jpg,47,0,same,f,response,f,TRUE,1,Clear and lively,Moderately clear and lively,Moderately clear and lively,Clear and lively,Clear and lively,Clear and lively,Clear and lively,Clear and lively,Moderately clear and lively,Dim and vague; flat,Moderately clear and lively,Perfectly clear and lively as real seeing,Moderately clear and lively,Dim and vague; flat,Moderately clear and lively,Clear and lively,24,male,bachelors,right,corrected,none.,My mental rotation of objects or ability to imagine things clearly.
cheetah,p2snqdorn1d,144,47,198821,2082,stimuli/22_150.jpg,22,150,same,f,response,f,TRUE,1,Clear and lively,Moderately clear and lively,Moderately clear and lively,Clear and lively,Clear and lively,Clear and lively,Clear and lively,Clear and lively,Moderately clear and lively,Dim and vague; flat,Moderately clear and lively,Perfectly clear and lively as real seeing,Moderately clear and lively,Dim and vague; flat,Moderately clear and lively,Clear and lively,24,male,bachelors,right,corrected,none.,My mental rotation of objects or ability to imagine things clearly.
cheetah,p2snqdorn1d,147,48,203504,3174,stimuli/9_50_R.jpg,9,50,different,j,response,j,TRUE,1,Clear and lively,Moderately clear and lively,Moderately clear and lively,Clear and lively,Clear and lively,Clear and lively,Clear and lively,Clear and lively,Moderately clear and lively,Dim and vague; flat,Moderately clear and lively,Perfectly clear and lively as real seeing,Moderately clear and lively,Dim and vague; flat,Moderately clear and lively,Clear and lively,24,male,bachelors,right,corrected,none.,My mental rotation of objects or ability to imagine things clearly.
cheetah,p2snqdorn1d,151,49,239460,4443,stimuli/36_50.jpg,36,50,same,j,response,f,FALSE,0,Clear and lively,Moderately clear and lively,Moderately clear and lively,Clear and lively,Clear and lively,Clear and lively,Clear and lively,Clear and lively,Moderately clear and lively,Dim and vague; flat,Moderately clear and lively,Perfectly clear and lively as real seeing,Moderately clear and lively,Dim and vague; flat,Moderately clear and lively,Clear and lively,24,male,bachelors,right,corrected,none.,My mental rotation of objects or ability to imagine things clearly.
cheetah,p2snqdorn1d,154,50,243085,2117,stimuli/1_150_R.jpg,1,150,different,j,response,j,TRUE,1,Clear and lively,Moderately clear and lively,Moderately clear and lively,Clear and lively,Clear and lively,Clear and lively,Clear and lively,Clear and lively,Moderately clear and lively,Dim and vague; flat,Moderately clear and lively,Perfectly clear and lively as real seeing,Moderately clear and lively,Dim and vague; flat,Moderately clear and lively,Clear and lively,24,male,bachelors,right,corrected,none.,My mental rotation of objects or ability to imagine things clearly.
cheetah,p2snqdorn1d,157,51,245824,1231,stimuli/34_0_R.jpg,34,0,different,j,response,j,TRUE,1,Clear and lively,Moderately clear and lively,Moderately clear and lively,Clear and lively,Clear and lively,Clear and lively,Clear and lively,Clear and lively,Moderately clear and lively,Dim and vague; flat,Moderately clear and lively,Perfectly clear and lively as real seeing,Moderately clear and lively,Dim and vague; flat,Moderately clear and lively,Clear and lively,24,male,bachelors,right,corrected,none.,My mental rotation of objects or ability to imagine things clearly.
cheetah,p2snqdorn1d,160,52,248254,921,stimuli/37_0.jpg,37,0,same,f,response,f,TRUE,1,Clear and lively,Moderately clear and lively,Moderately clear and lively,Clear and lively,Clear and lively,Clear and lively,Clear and lively,Clear and lively,Moderately clear and lively,Dim and vague; flat,Moderately clear and lively,Perfectly clear and lively as real seeing,Moderately clear and lively,Dim and vague; flat,Moderately clear and lively,Clear and lively,24,male,bachelors,right,corrected,none.,My mental rotation of objects or ability to imagine things clearly.
cheetah,p2snqdorn1d,163,53,252431,2669,stimuli/18_100_R.jpg,18,100,different,j,response,j,TRUE,1,Clear and lively,Moderately clear and lively,Moderately clear and lively,Clear and lively,Clear and lively,Clear and lively,Clear and lively,Clear and lively,Moderately clear and lively,Dim and vague; flat,Moderately clear and lively,Perfectly clear and lively as real seeing,Moderately clear and lively,Dim and vague; flat,Moderately clear and lively,Clear and lively,24,male,bachelors,right,corrected,none.,My mental rotation of objects or ability to imagine things clearly.
cheetah,p2snqdorn1d,166,54,258561,4622,stimuli/36_100_R.jpg,36,100,different,j,response,j,TRUE,1,Clear and lively,Moderately clear and lively,Moderately clear and lively,Clear and lively,Clear and lively,Clear and lively,Clear and lively,Clear and lively,Moderately clear and lively,Dim and vague; flat,Moderately clear and lively,Perfectly clear and lively as real seeing,Moderately clear and lively,Dim and vague; flat,Moderately clear and lively,Clear and lively,24,male,bachelors,right,corrected,none.,My mental rotation of objects or ability to imagine things clearly.
cheetah,p2snqdorn1d,169,55,261461,1390,stimuli/10_50.jpg,10,50,same,f,response,f,TRUE,1,Clear and lively,Moderately clear and lively,Moderately clear and lively,Clear and lively,Clear and lively,Clear and lively,Clear and lively,Clear and lively,Moderately clear and lively,Dim and vague; flat,Moderately clear and lively,Perfectly clear and lively as real seeing,Moderately clear and lively,Dim and vague; flat,Moderately clear and lively,Clear and lively,24,male,bachelors,right,corrected,none.,My mental rotation of objects or ability to imagine things clearly.
cheetah,p2snqdorn1d,172,56,263844,876,stimuli/19_50.jpg,19,50,same,f,response,f,TRUE,1,Clear and lively,Moderately clear and lively,Moderately clear and lively,Clear and lively,Clear and lively,Clear and lively,Clear and lively,Clear and lively,Moderately clear and lively,Dim and vague; flat,Moderately clear and lively,Perfectly clear and lively as real seeing,Moderately clear and lively,Dim and vague; flat,Moderately clear and lively,Clear and lively,24,male,bachelors,right,corrected,none.,My mental rotation of objects or ability to imagine things clearly.
cheetah,p2snqdorn1d,175,57,266057,704,stimuli/45_0.jpg,45,0,same,f,response,f,TRUE,1,Clear and lively,Moderately clear and lively,Moderately clear and lively,Clear and lively,Clear and lively,Clear and lively,Clear and lively,Clear and lively,Moderately clear and lively,Dim and vague; flat,Moderately clear and lively,Perfectly clear and lively as real seeing,Moderately clear and lively,Dim and vague; flat,Moderately clear and lively,Clear and lively,24,male,bachelors,right,corrected,none.,My mental rotation of objects or ability to imagine things clearly.
cheetah,p2snqdorn1d,178,58,269670,2104,stimuli/32_150.jpg,32,150,same,f,response,f,TRUE,1,Clear and lively,Moderately clear and lively,Moderately clear and lively,Clear and lively,Clear and lively,Clear and lively,Clear and lively,Clear and lively,Moderately clear and lively,Dim and vague; flat,Moderately clear and lively,Perfectly clear and lively as real seeing,Moderately clear and lively,Dim and vague; flat,Moderately clear and lively,Clear and lively,24,male,bachelors,right,corrected,none.,My mental rotation of objects or ability to imagine things clearly.
cheetah,p2snqdorn1d,181,59,277374,6194,stimuli/11_100.jpg,11,100,same,f,response,f,TRUE,1,Clear and lively,Moderately clear and lively,Moderately clear and lively,Clear and lively,Clear and lively,Clear and lively,Clear and lively,Clear and lively,Moderately clear and lively,Dim and vague; flat,Moderately clear and lively,Perfectly clear and lively as real seeing,Moderately clear and lively,Dim and vague; flat,Moderately clear and lively,Clear and lively,24,male,bachelors,right,corrected,none.,My mental rotation of objects or ability to imagine things clearly.
cheetah,p2snqdorn1d,184,60,279984,1103,stimuli/46_50_R.jpg,46,50,different,j,response,j,TRUE,1,Clear and lively,Moderately clear and lively,Moderately clear and lively,Clear and lively,Clear and lively,Clear and lively,Clear and lively,Clear and lively,Moderately clear and lively,Dim and vague; flat,Moderately clear and lively,Perfectly clear and lively as real seeing,Moderately clear and lively,Dim and vague; flat,Moderately clear and lively,Clear and lively,24,male,bachelors,right,corrected,none.,My mental rotation of objects or ability to imagine things clearly.
