"success","timeout","failed_images","failed_audio","failed_video","trial_type","trial_index","plugin_version","time_elapsed","random_id","rt","stimulus","response","task","correct_response","correct"
"true","false","[]","[]","[]","preload","0","2.0.0","4940","p2mpwwhb0pg","","","","","",""
"true","","","","","fullscreen","1","2.0.0","20910","p2mpwwhb0pg","14966","","","","",""
"","","","","","html-keyboard-response","2","2.0.0","22031","p2mpwwhb0pg","1119","Welcome to the experiment. Press any key to begin.","m","","",""
"","","","","","survey-text","3","2.0.0","25381","p2mpwwhb0pg","3346","","{""participant_id"":""p73""}","","",""
"","","","","","html-keyboard-response","4","2.0.0","40154","p2mpwwhb0pg","14772","
        <p>Welcome to the experiment.</p>
        <p>In this task, you will see pairs of images.</p>
        <p>Your job is to determine whether the image on the right is a rotated version of the image on the left.</p>
        <p>Press the <strong>F</strong> key if the images are the same.</p>
        <p>Press the <strong>J</strong> key if the images are different.</p>
        <p>Press any key to begin.</p>
    ","k","","",""
"","","","","","html-keyboard-response","5","2.0.0","41161","p2mpwwhb0pg","null","<div style=""font-size: 75px;"">+</div>","null","","",""
"","","","","","image-keyboard-response","6","2.0.0","51817","p2mpwwhb0pg","10649","stimuli/30_0_R.jpg","j","response","j","true"
"","","","","","html-keyboard-response","7","2.0.0","52320","p2mpwwhb0pg","null","<p style=""border: 5px solid green;"">Correct!</p>","null","","",""
"","","","","","html-keyboard-response","8","2.0.0","53323","p2mpwwhb0pg","null","<div style=""font-size: 75px;"">+</div>","null","","",""
"","","","","","image-keyboard-response","9","2.0.0","58625","p2mpwwhb0pg","5299","stimuli/13_50_R.jpg","j","response","j","true"
"","","","","","html-keyboard-response","10","2.0.0","59127","p2mpwwhb0pg","null","<p style=""border: 5px solid green;"">Correct!</p>","null","","",""
"","","","","","html-keyboard-response","11","2.0.0","60130","p2mpwwhb0pg","null","<div style=""font-size: 75px;"">+</div>","null","","",""
"","","","","","image-keyboard-response","12","2.0.0","62792","p2mpwwhb0pg","2659","stimuli/11_0.jpg","f","response","f","true"
"","","","","","html-keyboard-response","13","2.0.0","63294","p2mpwwhb0pg","null","<p style=""border: 5px solid green;"">Correct!</p>","null","","",""
"","","","","","html-keyboard-response","14","2.0.0","64298","p2mpwwhb0pg","null","<div style=""font-size: 75px;"">+</div>","null","","",""
"","","","","","image-keyboard-response","15","2.0.0","68983","p2mpwwhb0pg","4682","stimuli/43_50_R.jpg","j","response","j","true"
"","","","","","html-keyboard-response","16","2.0.0","69485","p2mpwwhb0pg","null","<p style=""border: 5px solid green;"">Correct!</p>","null","","",""
"","","","","","html-keyboard-response","17","2.0.0","70489","p2mpwwhb0pg","null","<div style=""font-size: 75px;"">+</div>","null","","",""
"","","","","","image-keyboard-response","18","2.0.0","81965","p2mpwwhb0pg","11473","stimuli/19_100_R.jpg","j","response","j","true"
"","","","","","html-keyboard-response","19","2.0.0","82467","p2mpwwhb0pg","null","<p style=""border: 5px solid green;"">Correct!</p>","null","","",""
"","","","","","html-keyboard-response","20","2.0.0","83470","p2mpwwhb0pg","null","<div style=""font-size: 75px;"">+</div>","null","","",""
"","","","","","image-keyboard-response","21","2.0.0","87573","p2mpwwhb0pg","4100","stimuli/13_100_R.jpg","j","response","j","true"
"","","","","","html-keyboard-response","22","2.0.0","88076","p2mpwwhb0pg","null","<p style=""border: 5px solid green;"">Correct!</p>","null","","",""
"","","","","","html-keyboard-response","23","2.0.0","89080","p2mpwwhb0pg","null","<div style=""font-size: 75px;"">+</div>","null","","",""
"","","","","","image-keyboard-response","24","2.0.0","93139","p2mpwwhb0pg","4057","stimuli/12_0_R.jpg","j","response","j","true"
"","","","","","html-keyboard-response","25","2.0.0","93641","p2mpwwhb0pg","null","<p style=""border: 5px solid green;"">Correct!</p>","null","","",""
"","","","","","html-keyboard-response","26","2.0.0","94644","p2mpwwhb0pg","null","<div style=""font-size: 75px;"">+</div>","null","","",""
"","","","","","image-keyboard-response","27","2.0.0","99536","p2mpwwhb0pg","4888","stimuli/5_0.jpg","f","response","f","true"
"","","","","","html-keyboard-response","28","2.0.0","100038","p2mpwwhb0pg","null","<p style=""border: 5px solid green;"">Correct!</p>","null","","",""
"","","","","","html-keyboard-response","29","2.0.0","101041","p2mpwwhb0pg","null","<div style=""font-size: 75px;"">+</div>","null","","",""
"","","","","","image-keyboard-response","30","2.0.0","103743","p2mpwwhb0pg","2698","stimuli/29_50.jpg","f","response","f","true"
"","","","","","html-keyboard-response","31","2.0.0","104245","p2mpwwhb0pg","null","<p style=""border: 5px solid green;"">Correct!</p>","null","","",""
"","","","","","html-keyboard-response","32","2.0.0","105248","p2mpwwhb0pg","null","<div style=""font-size: 75px;"">+</div>","null","","",""
"","","","","","image-keyboard-response","33","2.0.0","107669","p2mpwwhb0pg","2418","stimuli/1_150.jpg","f","response","f","true"
"","","","","","html-keyboard-response","34","2.0.0","108171","p2mpwwhb0pg","null","<p style=""border: 5px solid green;"">Correct!</p>","null","","",""
"","","","","","html-keyboard-response","35","2.0.0","109174","p2mpwwhb0pg","null","<div style=""font-size: 75px;"">+</div>","null","","",""
"","","","","","image-keyboard-response","36","2.0.0","113940","p2mpwwhb0pg","4763","stimuli/39_150.jpg","j","response","f","false"
"","","","","","html-keyboard-response","37","2.0.0","114442","p2mpwwhb0pg","null","<p style=""border: 5px solid red;"">Incorrect.</p>","null","","",""
"","","","","","html-keyboard-response","38","2.0.0","115445","p2mpwwhb0pg","null","<div style=""font-size: 75px;"">+</div>","null","","",""
"","","","","","image-keyboard-response","39","2.0.0","118951","p2mpwwhb0pg","3503","stimuli/42_50.jpg","f","response","f","true"
"","","","","","html-keyboard-response","40","2.0.0","119453","p2mpwwhb0pg","null","<p style=""border: 5px solid green;"">Correct!</p>","null","","",""
"","","","","","html-keyboard-response","41","2.0.0","120456","p2mpwwhb0pg","null","<div style=""font-size: 75px;"">+</div>","null","","",""
"","","","","","image-keyboard-response","42","2.0.0","123237","p2mpwwhb0pg","2779","stimuli/8_50_R.jpg","j","response","j","true"
"","","","","","html-keyboard-response","43","2.0.0","123739","p2mpwwhb0pg","null","<p style=""border: 5px solid green;"">Correct!</p>","null","","",""
"","","","","","html-keyboard-response","44","2.0.0","124743","p2mpwwhb0pg","null","<div style=""font-size: 75px;"">+</div>","null","","",""
"","","","","","image-keyboard-response","45","2.0.0","128010","p2mpwwhb0pg","3265","stimuli/35_100.jpg","f","response","f","true"
"","","","","","html-keyboard-response","46","2.0.0","128513","p2mpwwhb0pg","null","<p style=""border: 5px solid green;"">Correct!</p>","null","","",""
"","","","","","html-keyboard-response","47","2.0.0","129516","p2mpwwhb0pg","null","<div style=""font-size: 75px;"">+</div>","null","","",""
"","","","","","image-keyboard-response","48","2.0.0","132480","p2mpwwhb0pg","2961","stimuli/17_150.jpg","f","response","f","true"
"","","","","","html-keyboard-response","49","2.0.0","132982","p2mpwwhb0pg","null","<p style=""border: 5px solid green;"">Correct!</p>","null","","",""
"","","","","","html-keyboard-response","50","2.0.0","133985","p2mpwwhb0pg","null","<div style=""font-size: 75px;"">+</div>","null","","",""
"","","","","","image-keyboard-response","51","2.0.0","137248","p2mpwwhb0pg","3262","stimuli/20_150.jpg","f","response","f","true"
"","","","","","html-keyboard-response","52","2.0.0","137750","p2mpwwhb0pg","null","<p style=""border: 5px solid green;"">Correct!</p>","null","","",""
"","","","","","html-keyboard-response","53","2.0.0","138754","p2mpwwhb0pg","null","<div style=""font-size: 75px;"">+</div>","null","","",""
"","","","","","image-keyboard-response","54","2.0.0","140644","p2mpwwhb0pg","1885","stimuli/1_50.jpg","f","response","f","true"
"","","","","","html-keyboard-response","55","2.0.0","141146","p2mpwwhb0pg","null","<p style=""border: 5px solid green;"">Correct!</p>","null","","",""
"","","","","","html-keyboard-response","56","2.0.0","142150","p2mpwwhb0pg","null","<div style=""font-size: 75px;"">+</div>","null","","",""
"","","","","","image-keyboard-response","57","2.0.0","144155","p2mpwwhb0pg","2002","stimuli/39_100_R.jpg","f","response","j","false"
"","","","","","html-keyboard-response","58","2.0.0","144657","p2mpwwhb0pg","null","<p style=""border: 5px solid red;"">Incorrect.</p>","null","","",""
"","","","","","html-keyboard-response","59","2.0.0","145660","p2mpwwhb0pg","null","<div style=""font-size: 75px;"">+</div>","null","","",""
"","","","","","image-keyboard-response","60","2.0.0","147099","p2mpwwhb0pg","1436","stimuli/14_50.jpg","f","response","f","true"
"","","","","","html-keyboard-response","61","2.0.0","147602","p2mpwwhb0pg","null","<p style=""border: 5px solid green;"">Correct!</p>","null","","",""
"","","","","","html-keyboard-response","62","2.0.0","148605","p2mpwwhb0pg","null","<div style=""font-size: 75px;"">+</div>","null","","",""
"","","","","","image-keyboard-response","63","2.0.0","150414","p2mpwwhb0pg","1807","stimuli/47_150.jpg","f","response","f","true"
"","","","","","html-keyboard-response","64","2.0.0","150917","p2mpwwhb0pg","null","<p style=""border: 5px solid green;"">Correct!</p>","null","","",""
"","","","","","html-keyboard-response","65","2.0.0","151919","p2mpwwhb0pg","null","<div style=""font-size: 75px;"">+</div>","null","","",""
"","","","","","image-keyboard-response","66","2.0.0","154744","p2mpwwhb0pg","2822","stimuli/6_100_R.jpg","j","response","j","true"
"","","","","","html-keyboard-response","67","2.0.0","155246","p2mpwwhb0pg","null","<p style=""border: 5px solid green;"">Correct!</p>","null","","",""
"","","","","","html-keyboard-response","68","2.0.0","156250","p2mpwwhb0pg","null","<div style=""font-size: 75px;"">+</div>","null","","",""
"","","","","","image-keyboard-response","69","2.0.0","158403","p2mpwwhb0pg","2151","stimuli/34_100.jpg","f","response","f","true"
"","","","","","html-keyboard-response","70","2.0.0","158906","p2mpwwhb0pg","null","<p style=""border: 5px solid green;"">Correct!</p>","null","","",""
"","","","","","html-keyboard-response","71","2.0.0","159910","p2mpwwhb0pg","null","<div style=""font-size: 75px;"">+</div>","null","","",""
"","","","","","image-keyboard-response","72","2.0.0","161806","p2mpwwhb0pg","1892","stimuli/3_150_R.jpg","f","response","j","false"
"","","","","","html-keyboard-response","73","2.0.0","162307","p2mpwwhb0pg","null","<p style=""border: 5px solid red;"">Incorrect.</p>","null","","",""
"","","","","","html-keyboard-response","74","2.0.0","163311","p2mpwwhb0pg","null","<div style=""font-size: 75px;"">+</div>","null","","",""
"","","","","","image-keyboard-response","75","2.0.0","164568","p2mpwwhb0pg","1254","stimuli/14_50_R.jpg","j","response","j","true"
"","","","","","html-keyboard-response","76","2.0.0","165070","p2mpwwhb0pg","null","<p style=""border: 5px solid green;"">Correct!</p>","null","","",""
"","","","","","html-keyboard-response","77","2.0.0","166072","p2mpwwhb0pg","null","<div style=""font-size: 75px;"">+</div>","null","","",""
"","","","","","image-keyboard-response","78","2.0.0","167073","p2mpwwhb0pg","1000","stimuli/41_0.jpg","f","response","f","true"
"","","","","","html-keyboard-response","79","2.0.0","167575","p2mpwwhb0pg","null","<p style=""border: 5px solid green;"">Correct!</p>","null","","",""
"","","","","","html-keyboard-response","80","2.0.0","168578","p2mpwwhb0pg","null","<div style=""font-size: 75px;"">+</div>","null","","",""
"","","","","","image-keyboard-response","81","2.0.0","170911","p2mpwwhb0pg","2331","stimuli/27_100_R.jpg","j","response","j","true"
"","","","","","html-keyboard-response","82","2.0.0","171413","p2mpwwhb0pg","null","<p style=""border: 5px solid green;"">Correct!</p>","null","","",""
"","","","","","html-keyboard-response","83","2.0.0","172417","p2mpwwhb0pg","null","<div style=""font-size: 75px;"">+</div>","null","","",""
"","","","","","image-keyboard-response","84","2.0.0","173298","p2mpwwhb0pg","879","stimuli/40_0_R.jpg","f","response","j","false"
"","","","","","html-keyboard-response","85","2.0.0","173800","p2mpwwhb0pg","null","<p style=""border: 5px solid red;"">Incorrect.</p>","null","","",""
"","","","","","html-keyboard-response","86","2.0.0","174804","p2mpwwhb0pg","null","<div style=""font-size: 75px;"">+</div>","null","","",""
"","","","","","image-keyboard-response","87","2.0.0","176477","p2mpwwhb0pg","1671","stimuli/16_0_R.jpg","j","response","j","true"
"","","","","","html-keyboard-response","88","2.0.0","176979","p2mpwwhb0pg","null","<p style=""border: 5px solid green;"">Correct!</p>","null","","",""
"","","","","","html-keyboard-response","89","2.0.0","177982","p2mpwwhb0pg","null","<div style=""font-size: 75px;"">+</div>","null","","",""
"","","","","","image-keyboard-response","90","2.0.0","179624","p2mpwwhb0pg","1640","stimuli/43_0_R.jpg","j","response","j","true"
"","","","","","html-keyboard-response","91","2.0.0","180126","p2mpwwhb0pg","null","<p style=""border: 5px solid green;"">Correct!</p>","null","","",""
"","","","","","html-keyboard-response","92","2.0.0","181129","p2mpwwhb0pg","null","<div style=""font-size: 75px;"">+</div>","null","","",""
"","","","","","image-keyboard-response","93","2.0.0","183808","p2mpwwhb0pg","2677","stimuli/18_100_R.jpg","j","response","j","true"
"","","","","","html-keyboard-response","94","2.0.0","184311","p2mpwwhb0pg","null","<p style=""border: 5px solid green;"">Correct!</p>","null","","",""
"","","","","","html-keyboard-response","95","2.0.0","185315","p2mpwwhb0pg","null","<div style=""font-size: 75px;"">+</div>","null","","",""
"","","","","","image-keyboard-response","96","2.0.0","187364","p2mpwwhb0pg","2046","stimuli/24_150.jpg","f","response","f","true"
"","","","","","html-keyboard-response","97","2.0.0","187866","p2mpwwhb0pg","null","<p style=""border: 5px solid green;"">Correct!</p>","null","","",""
"","","","","","html-keyboard-response","98","2.0.0","188869","p2mpwwhb0pg","null","<div style=""font-size: 75px;"">+</div>","null","","",""
"","","","","","image-keyboard-response","99","2.0.0","189801","p2mpwwhb0pg","929","stimuli/24_0.jpg","f","response","f","true"
"","","","","","html-keyboard-response","100","2.0.0","190303","p2mpwwhb0pg","null","<p style=""border: 5px solid green;"">Correct!</p>","null","","",""
"","","","","","html-keyboard-response","101","2.0.0","191306","p2mpwwhb0pg","null","<div style=""font-size: 75px;"">+</div>","null","","",""
"","","","","","image-keyboard-response","102","2.0.0","192312","p2mpwwhb0pg","1003","stimuli/2_0.jpg","f","response","f","true"
"","","","","","html-keyboard-response","103","2.0.0","192813","p2mpwwhb0pg","null","<p style=""border: 5px solid green;"">Correct!</p>","null","","",""
"","","","","","html-keyboard-response","104","2.0.0","193817","p2mpwwhb0pg","null","<div style=""font-size: 75px;"">+</div>","null","","",""
"","","","","","image-keyboard-response","105","2.0.0","199771","p2mpwwhb0pg","5950","stimuli/48_100.jpg","f","response","f","true"
"","","","","","html-keyboard-response","106","2.0.0","200274","p2mpwwhb0pg","null","<p style=""border: 5px solid green;"">Correct!</p>","null","","",""
"","","","","","html-keyboard-response","107","2.0.0","201277","p2mpwwhb0pg","null","<div style=""font-size: 75px;"">+</div>","null","","",""
"","","","","","image-keyboard-response","108","2.0.0","204191","p2mpwwhb0pg","2911","stimuli/11_100_R.jpg","j","response","j","true"
"","","","","","html-keyboard-response","109","2.0.0","204694","p2mpwwhb0pg","null","<p style=""border: 5px solid green;"">Correct!</p>","null","","",""
"","","","","","html-keyboard-response","110","2.0.0","205697","p2mpwwhb0pg","null","<div style=""font-size: 75px;"">+</div>","null","","",""
"","","","","","image-keyboard-response","111","2.0.0","207752","p2mpwwhb0pg","2052","stimuli/30_50.jpg","f","response","f","true"
"","","","","","html-keyboard-response","112","2.0.0","208255","p2mpwwhb0pg","null","<p style=""border: 5px solid green;"">Correct!</p>","null","","",""
"","","","","","html-keyboard-response","113","2.0.0","209258","p2mpwwhb0pg","null","<div style=""font-size: 75px;"">+</div>","null","","",""
"","","","","","image-keyboard-response","114","2.0.0","212191","p2mpwwhb0pg","2930","stimuli/8_150_R.jpg","f","response","j","false"
"","","","","","html-keyboard-response","115","2.0.0","212692","p2mpwwhb0pg","null","<p style=""border: 5px solid red;"">Incorrect.</p>","null","","",""
"","","","","","html-keyboard-response","116","2.0.0","213695","p2mpwwhb0pg","null","<div style=""font-size: 75px;"">+</div>","null","","",""
"","","","","","image-keyboard-response","117","2.0.0","214789","p2mpwwhb0pg","1091","stimuli/43_0.jpg","f","response","f","true"
"","","","","","html-keyboard-response","118","2.0.0","215292","p2mpwwhb0pg","null","<p style=""border: 5px solid green;"">Correct!</p>","null","","",""
"","","","","","html-keyboard-response","119","2.0.0","216294","p2mpwwhb0pg","null","<div style=""font-size: 75px;"">+</div>","null","","",""
"","","","","","image-keyboard-response","120","2.0.0","217967","p2mpwwhb0pg","1670","stimuli/24_50_R.jpg","j","response","j","true"
"","","","","","html-keyboard-response","121","2.0.0","218468","p2mpwwhb0pg","null","<p style=""border: 5px solid green;"">Correct!</p>","null","","",""
"","","","","","html-keyboard-response","122","2.0.0","219473","p2mpwwhb0pg","null","<div style=""font-size: 75px;"">+</div>","null","","",""
"","","","","","image-keyboard-response","123","2.0.0","222618","p2mpwwhb0pg","3142","stimuli/2_100.jpg","f","response","f","true"
"","","","","","html-keyboard-response","124","2.0.0","223121","p2mpwwhb0pg","null","<p style=""border: 5px solid green;"">Correct!</p>","null","","",""
"","","","","","html-keyboard-response","125","2.0.0","224124","p2mpwwhb0pg","null","<div style=""font-size: 75px;"">+</div>","null","","",""
"","","","","","image-keyboard-response","126","2.0.0","226910","p2mpwwhb0pg","2783","stimuli/24_50.jpg","f","response","f","true"
"","","","","","html-keyboard-response","127","2.0.0","227412","p2mpwwhb0pg","null","<p style=""border: 5px solid green;"">Correct!</p>","null","","",""
"","","","","","html-keyboard-response","128","2.0.0","228416","p2mpwwhb0pg","null","<div style=""font-size: 75px;"">+</div>","null","","",""
"","","","","","image-keyboard-response","129","2.0.0","231324","p2mpwwhb0pg","2905","stimuli/32_0_R.jpg","j","response","j","true"
"","","","","","html-keyboard-response","130","2.0.0","231826","p2mpwwhb0pg","null","<p style=""border: 5px solid green;"">Correct!</p>","null","","",""
"","","","","","html-keyboard-response","131","2.0.0","232829","p2mpwwhb0pg","null","<div style=""font-size: 75px;"">+</div>","null","","",""
"","","","","","image-keyboard-response","132","2.0.0","235685","p2mpwwhb0pg","2854","stimuli/15_100.jpg","f","response","f","true"
"","","","","","html-keyboard-response","133","2.0.0","236187","p2mpwwhb0pg","null","<p style=""border: 5px solid green;"">Correct!</p>","null","","",""
"","","","","","html-keyboard-response","134","2.0.0","237191","p2mpwwhb0pg","null","<div style=""font-size: 75px;"">+</div>","null","","",""
"","","","","","image-keyboard-response","135","2.0.0","240405","p2mpwwhb0pg","3211","stimuli/7_150.jpg","f","response","f","true"
"","","","","","html-keyboard-response","136","2.0.0","240907","p2mpwwhb0pg","null","<p style=""border: 5px solid green;"">Correct!</p>","null","","",""
"","","","","","html-keyboard-response","137","2.0.0","241910","p2mpwwhb0pg","null","<div style=""font-size: 75px;"">+</div>","null","","",""
"","","","","","image-keyboard-response","138","2.0.0","244101","p2mpwwhb0pg","2188","stimuli/22_150_R.jpg","f","response","j","false"
"","","","","","html-keyboard-response","139","2.0.0","244604","p2mpwwhb0pg","null","<p style=""border: 5px solid red;"">Incorrect.</p>","null","","",""
"","","","","","html-keyboard-response","140","2.0.0","245608","p2mpwwhb0pg","null","<div style=""font-size: 75px;"">+</div>","null","","",""
"","","","","","image-keyboard-response","141","2.0.0","248103","p2mpwwhb0pg","2493","stimuli/4_100_R.jpg","j","response","j","true"
"","","","","","html-keyboard-response","142","2.0.0","248605","p2mpwwhb0pg","null","<p style=""border: 5px solid green;"">Correct!</p>","null","","",""
"","","","","","html-keyboard-response","143","2.0.0","249608","p2mpwwhb0pg","null","<div style=""font-size: 75px;"">+</div>","null","","",""
"","","","","","image-keyboard-response","144","2.0.0","251177","p2mpwwhb0pg","1566","stimuli/21_50_R.jpg","j","response","j","true"
"","","","","","html-keyboard-response","145","2.0.0","251679","p2mpwwhb0pg","null","<p style=""border: 5px solid green;"">Correct!</p>","null","","",""
"","","","","","html-keyboard-response","146","2.0.0","252682","p2mpwwhb0pg","null","<div style=""font-size: 75px;"">+</div>","null","","",""
"","","","","","image-keyboard-response","147","2.0.0","255342","p2mpwwhb0pg","2658","stimuli/46_150_R.jpg","j","response","j","true"
"","","","","","html-keyboard-response","148","2.0.0","255845","p2mpwwhb0pg","null","<p style=""border: 5px solid green;"">Correct!</p>","null","","",""
"","","","","","html-keyboard-response","149","2.0.0","285850","p2mpwwhb0pg","null","<p> Take a break! Experiment continues in 30 seconds . </p>","null","","",""
"","","","","","html-keyboard-response","150","2.0.0","286854","p2mpwwhb0pg","null","<div style=""font-size: 75px;"">+</div>","null","","",""
"","","","","","image-keyboard-response","151","2.0.0","322019","p2mpwwhb0pg","35162","stimuli/29_50_R.jpg","j","response","j","true"
"","","","","","html-keyboard-response","152","2.0.0","322522","p2mpwwhb0pg","null","<p style=""border: 5px solid green;"">Correct!</p>","null","","",""
"","","","","","html-keyboard-response","153","2.0.0","323525","p2mpwwhb0pg","null","<div style=""font-size: 75px;"">+</div>","null","","",""
"","","","","","image-keyboard-response","154","2.0.0","326185","p2mpwwhb0pg","2657","stimuli/46_50.jpg","f","response","f","true"
"","","","","","html-keyboard-response","155","2.0.0","326687","p2mpwwhb0pg","null","<p style=""border: 5px solid green;"">Correct!</p>","null","","",""
"","","","","","html-keyboard-response","156","2.0.0","327689","p2mpwwhb0pg","null","<div style=""font-size: 75px;"">+</div>","null","","",""
"","","","","","image-keyboard-response","157","2.0.0","328658","p2mpwwhb0pg","964","stimuli/19_0.jpg","f","response","f","true"
"","","","","","html-keyboard-response","158","2.0.0","329161","p2mpwwhb0pg","null","<p style=""border: 5px solid green;"">Correct!</p>","null","","",""
"","","","","","html-keyboard-response","159","2.0.0","330164","p2mpwwhb0pg","null","<div style=""font-size: 75px;"">+</div>","null","","",""
"","","","","","image-keyboard-response","160","2.0.0","332058","p2mpwwhb0pg","1891","stimuli/25_100.jpg","j","response","f","false"
"","","","","","html-keyboard-response","161","2.0.0","332560","p2mpwwhb0pg","null","<p style=""border: 5px solid red;"">Incorrect.</p>","null","","",""
"","","","","","html-keyboard-response","162","2.0.0","333563","p2mpwwhb0pg","null","<div style=""font-size: 75px;"">+</div>","null","","",""
"","","","","","image-keyboard-response","163","2.0.0","335061","p2mpwwhb0pg","1496","stimuli/13_0_R.jpg","j","response","j","true"
"","","","","","html-keyboard-response","164","2.0.0","335564","p2mpwwhb0pg","null","<p style=""border: 5px solid green;"">Correct!</p>","null","","",""
"","","","","","html-keyboard-response","165","2.0.0","336567","p2mpwwhb0pg","null","<div style=""font-size: 75px;"">+</div>","null","","",""
"","","","","","image-keyboard-response","166","2.0.0","338075","p2mpwwhb0pg","1506","stimuli/19_150_R.jpg","j","response","j","true"
"","","","","","html-keyboard-response","167","2.0.0","338577","p2mpwwhb0pg","null","<p style=""border: 5px solid green;"">Correct!</p>","null","","",""
"","","","","","html-keyboard-response","168","2.0.0","339581","p2mpwwhb0pg","null","<div style=""font-size: 75px;"">+</div>","null","","",""
"","","","","","image-keyboard-response","169","2.0.0","340701","p2mpwwhb0pg","1117","stimuli/14_0.jpg","f","response","f","true"
"","","","","","html-keyboard-response","170","2.0.0","341203","p2mpwwhb0pg","null","<p style=""border: 5px solid green;"">Correct!</p>","null","","",""
"","","","","","html-keyboard-response","171","2.0.0","342206","p2mpwwhb0pg","null","<div style=""font-size: 75px;"">+</div>","null","","",""
"","","","","","image-keyboard-response","172","2.0.0","343285","p2mpwwhb0pg","1076","stimuli/24_150_R.jpg","j","response","j","true"
"","","","","","html-keyboard-response","173","2.0.0","343787","p2mpwwhb0pg","null","<p style=""border: 5px solid green;"">Correct!</p>","null","","",""
"","","","","","html-keyboard-response","174","2.0.0","344790","p2mpwwhb0pg","null","<div style=""font-size: 75px;"">+</div>","null","","",""
"","","","","","image-keyboard-response","175","2.0.0","346125","p2mpwwhb0pg","1332","stimuli/5_150.jpg","j","response","f","false"
"","","","","","html-keyboard-response","176","2.0.0","346627","p2mpwwhb0pg","null","<p style=""border: 5px solid red;"">Incorrect.</p>","null","","",""
"","","","","","html-keyboard-response","177","2.0.0","347631","p2mpwwhb0pg","null","<div style=""font-size: 75px;"">+</div>","null","","",""
"","","","","","image-keyboard-response","178","2.0.0","348660","p2mpwwhb0pg","1027","stimuli/13_0.jpg","f","response","f","true"
"","","","","","html-keyboard-response","179","2.0.0","349162","p2mpwwhb0pg","null","<p style=""border: 5px solid green;"">Correct!</p>","null","","",""
"","","","","","html-keyboard-response","180","2.0.0","350165","p2mpwwhb0pg","null","<div style=""font-size: 75px;"">+</div>","null","","",""
"","","","","","image-keyboard-response","181","2.0.0","351960","p2mpwwhb0pg","1793","stimuli/36_50.jpg","f","response","f","true"
"","","","","","html-keyboard-response","182","2.0.0","352462","p2mpwwhb0pg","null","<p style=""border: 5px solid green;"">Correct!</p>","null","","",""
"","","","","","html-keyboard-response","183","2.0.0","353465","p2mpwwhb0pg","null","<div style=""font-size: 75px;"">+</div>","null","","",""
"","","","","","image-keyboard-response","184","2.0.0","356244","p2mpwwhb0pg","2777","stimuli/12_150.jpg","j","response","f","false"
"","","","","","html-keyboard-response","185","2.0.0","356747","p2mpwwhb0pg","null","<p style=""border: 5px solid red;"">Incorrect.</p>","null","","",""
"","","","","","html-keyboard-response","186","2.0.0","357750","p2mpwwhb0pg","null","<div style=""font-size: 75px;"">+</div>","null","","",""
"","","","","","image-keyboard-response","187","2.0.0","360001","p2mpwwhb0pg","2248","stimuli/23_100.jpg","f","response","f","true"
"","","","","","html-keyboard-response","188","2.0.0","360503","p2mpwwhb0pg","null","<p style=""border: 5px solid green;"">Correct!</p>","null","","",""
"","","","","","html-keyboard-response","189","2.0.0","361507","p2mpwwhb0pg","null","<div style=""font-size: 75px;"">+</div>","null","","",""
"","","","","","image-keyboard-response","190","2.0.0","362930","p2mpwwhb0pg","1421","stimuli/32_150_R.jpg","j","response","j","true"
"","","","","","html-keyboard-response","191","2.0.0","363431","p2mpwwhb0pg","null","<p style=""border: 5px solid green;"">Correct!</p>","null","","",""
"","","","","","html-keyboard-response","192","2.0.0","364435","p2mpwwhb0pg","null","<div style=""font-size: 75px;"">+</div>","null","","",""
"","","","","","image-keyboard-response","193","2.0.0","367342","p2mpwwhb0pg","2904","stimuli/10_100.jpg","j","response","f","false"
"","","","","","html-keyboard-response","194","2.0.0","367844","p2mpwwhb0pg","null","<p style=""border: 5px solid red;"">Incorrect.</p>","null","","",""
"","","","","","html-keyboard-response","195","2.0.0","368847","p2mpwwhb0pg","null","<div style=""font-size: 75px;"">+</div>","null","","",""
"","","","","","image-keyboard-response","196","2.0.0","370321","p2mpwwhb0pg","1471","stimuli/15_50.jpg","f","response","f","true"
"","","","","","html-keyboard-response","197","2.0.0","370824","p2mpwwhb0pg","null","<p style=""border: 5px solid green;"">Correct!</p>","null","","",""
"","","","","","html-keyboard-response","198","2.0.0","371827","p2mpwwhb0pg","null","<div style=""font-size: 75px;"">+</div>","null","","",""
"","","","","","image-keyboard-response","199","2.0.0","373677","p2mpwwhb0pg","1847","stimuli/32_50_R.jpg","j","response","j","true"
"","","","","","html-keyboard-response","200","2.0.0","374179","p2mpwwhb0pg","null","<p style=""border: 5px solid green;"">Correct!</p>","null","","",""
"","","","","","html-keyboard-response","201","2.0.0","375182","p2mpwwhb0pg","null","<div style=""font-size: 75px;"">+</div>","null","","",""
"","","","","","image-keyboard-response","202","2.0.0","376007","p2mpwwhb0pg","822","stimuli/1_0.jpg","f","response","f","true"
"","","","","","html-keyboard-response","203","2.0.0","376509","p2mpwwhb0pg","null","<p style=""border: 5px solid green;"">Correct!</p>","null","","",""
"","","","","","html-keyboard-response","204","2.0.0","377512","p2mpwwhb0pg","null","<div style=""font-size: 75px;"">+</div>","null","","",""
"","","","","","image-keyboard-response","205","2.0.0","379532","p2mpwwhb0pg","2017","stimuli/31_0_R.jpg","j","response","j","true"
"","","","","","html-keyboard-response","206","2.0.0","380034","p2mpwwhb0pg","null","<p style=""border: 5px solid green;"">Correct!</p>","null","","",""
"","","","","","html-keyboard-response","207","2.0.0","381037","p2mpwwhb0pg","null","<div style=""font-size: 75px;"">+</div>","null","","",""
"","","","","","image-keyboard-response","208","2.0.0","382352","p2mpwwhb0pg","1310","stimuli/26_100.jpg","f","response","f","true"
"","","","","","html-keyboard-response","209","2.0.0","382854","p2mpwwhb0pg","null","<p style=""border: 5px solid green;"">Correct!</p>","null","","",""
"","","","","","html-keyboard-response","210","2.0.0","383858","p2mpwwhb0pg","null","<div style=""font-size: 75px;"">+</div>","null","","",""
"","","","","","image-keyboard-response","211","2.0.0","385347","p2mpwwhb0pg","1486","stimuli/3_50_R.jpg","j","response","j","true"
"","","","","","html-keyboard-response","212","2.0.0","385849","p2mpwwhb0pg","null","<p style=""border: 5px solid green;"">Correct!</p>","null","","",""
"","","","","","html-keyboard-response","213","2.0.0","386852","p2mpwwhb0pg","null","<div style=""font-size: 75px;"">+</div>","null","","",""
"","","","","","image-keyboard-response","214","2.0.0","387907","p2mpwwhb0pg","1053","stimuli/24_0_R.jpg","j","response","j","true"
"","","","","","html-keyboard-response","215","2.0.0","388410","p2mpwwhb0pg","null","<p style=""border: 5px solid green;"">Correct!</p>","null","","",""
"","","","","","html-keyboard-response","216","2.0.0","389413","p2mpwwhb0pg","null","<div style=""font-size: 75px;"">+</div>","null","","",""
"","","","","","image-keyboard-response","217","2.0.0","391043","p2mpwwhb0pg","1628","stimuli/6_0_R.jpg","j","response","j","true"
"","","","","","html-keyboard-response","218","2.0.0","391545","p2mpwwhb0pg","null","<p style=""border: 5px solid green;"">Correct!</p>","null","","",""
"","","","","","html-keyboard-response","219","2.0.0","392548","p2mpwwhb0pg","null","<div style=""font-size: 75px;"">+</div>","null","","",""
"","","","","","image-keyboard-response","220","2.0.0","393508","p2mpwwhb0pg","957","stimuli/19_50_R.jpg","f","response","j","false"
"","","","","","html-keyboard-response","221","2.0.0","394009","p2mpwwhb0pg","null","<p style=""border: 5px solid red;"">Incorrect.</p>","null","","",""
"","","","","","html-keyboard-response","222","2.0.0","395012","p2mpwwhb0pg","null","<div style=""font-size: 75px;"">+</div>","null","","",""
"","","","","","image-keyboard-response","223","2.0.0","397212","p2mpwwhb0pg","2197","stimuli/28_50.jpg","f","response","f","true"
"","","","","","html-keyboard-response","224","2.0.0","397713","p2mpwwhb0pg","null","<p style=""border: 5px solid green;"">Correct!</p>","null","","",""
"","","","","","html-keyboard-response","225","2.0.0","398716","p2mpwwhb0pg","null","<div style=""font-size: 75px;"">+</div>","null","","",""
"","","","","","image-keyboard-response","226","2.0.0","401304","p2mpwwhb0pg","2585","stimuli/25_150_R.jpg","j","response","j","true"
"","","","","","html-keyboard-response","227","2.0.0","401807","p2mpwwhb0pg","null","<p style=""border: 5px solid green;"">Correct!</p>","null","","",""
"","","","","","html-keyboard-response","228","2.0.0","402810","p2mpwwhb0pg","null","<div style=""font-size: 75px;"">+</div>","null","","",""
"","","","","","image-keyboard-response","229","2.0.0","403759","p2mpwwhb0pg","945","stimuli/18_50.jpg","f","response","f","true"
"","","","","","html-keyboard-response","230","2.0.0","404260","p2mpwwhb0pg","null","<p style=""border: 5px solid green;"">Correct!</p>","null","","",""
"","","","","","html-keyboard-response","231","2.0.0","405264","p2mpwwhb0pg","null","<div style=""font-size: 75px;"">+</div>","null","","",""
"","","","","","image-keyboard-response","232","2.0.0","407782","p2mpwwhb0pg","2515","stimuli/24_100.jpg","f","response","f","true"
"","","","","","html-keyboard-response","233","2.0.0","408283","p2mpwwhb0pg","null","<p style=""border: 5px solid green;"">Correct!</p>","null","","",""
"","","","","","html-keyboard-response","234","2.0.0","409287","p2mpwwhb0pg","null","<div style=""font-size: 75px;"">+</div>","null","","",""
"","","","","","image-keyboard-response","235","2.0.0","412336","p2mpwwhb0pg","3047","stimuli/7_100.jpg","f","response","f","true"
"","","","","","html-keyboard-response","236","2.0.0","412838","p2mpwwhb0pg","null","<p style=""border: 5px solid green;"">Correct!</p>","null","","",""
"","","","","","html-keyboard-response","237","2.0.0","413842","p2mpwwhb0pg","null","<div style=""font-size: 75px;"">+</div>","null","","",""
"","","","","","image-keyboard-response","238","2.0.0","415799","p2mpwwhb0pg","1955","stimuli/26_50.jpg","f","response","f","true"
"","","","","","html-keyboard-response","239","2.0.0","416301","p2mpwwhb0pg","null","<p style=""border: 5px solid green;"">Correct!</p>","null","","",""
"","","","","","html-keyboard-response","240","2.0.0","417303","p2mpwwhb0pg","null","<div style=""font-size: 75px;"">+</div>","null","","",""
"","","","","","image-keyboard-response","241","2.0.0","418722","p2mpwwhb0pg","1417","stimuli/16_100_R.jpg","j","response","j","true"
"","","","","","html-keyboard-response","242","2.0.0","419225","p2mpwwhb0pg","null","<p style=""border: 5px solid green;"">Correct!</p>","null","","",""
"","","","","","html-keyboard-response","243","2.0.0","420228","p2mpwwhb0pg","null","<div style=""font-size: 75px;"">+</div>","null","","",""
"","","","","","image-keyboard-response","244","2.0.0","421727","p2mpwwhb0pg","1496","stimuli/48_150_R.jpg","j","response","j","true"
"","","","","","html-keyboard-response","245","2.0.0","422229","p2mpwwhb0pg","null","<p style=""border: 5px solid green;"">Correct!</p>","null","","",""
"","","","","","html-keyboard-response","246","2.0.0","423232","p2mpwwhb0pg","null","<div style=""font-size: 75px;"">+</div>","null","","",""
"","","","","","image-keyboard-response","247","2.0.0","424553","p2mpwwhb0pg","1318","stimuli/28_150_R.jpg","j","response","j","true"
"","","","","","html-keyboard-response","248","2.0.0","425055","p2mpwwhb0pg","null","<p style=""border: 5px solid green;"">Correct!</p>","null","","",""
"","","","","","html-keyboard-response","249","2.0.0","426058","p2mpwwhb0pg","null","<div style=""font-size: 75px;"">+</div>","null","","",""
"","","","","","image-keyboard-response","250","2.0.0","427733","p2mpwwhb0pg","1672","stimuli/46_50_R.jpg","j","response","j","true"
"","","","","","html-keyboard-response","251","2.0.0","428235","p2mpwwhb0pg","null","<p style=""border: 5px solid green;"">Correct!</p>","null","","",""
"","","","","","html-keyboard-response","252","2.0.0","429239","p2mpwwhb0pg","null","<div style=""font-size: 75px;"">+</div>","null","","",""
"","","","","","image-keyboard-response","253","2.0.0","430547","p2mpwwhb0pg","1306","stimuli/20_100_R.jpg","f","response","j","false"
"","","","","","html-keyboard-response","254","2.0.0","431049","p2mpwwhb0pg","null","<p style=""border: 5px solid red;"">Incorrect.</p>","null","","",""
"","","","","","html-keyboard-response","255","2.0.0","432051","p2mpwwhb0pg","null","<div style=""font-size: 75px;"">+</div>","null","","",""
"","","","","","image-keyboard-response","256","2.0.0","433599","p2mpwwhb0pg","1546","stimuli/34_150.jpg","f","response","f","true"
"","","","","","html-keyboard-response","257","2.0.0","434102","p2mpwwhb0pg","null","<p style=""border: 5px solid green;"">Correct!</p>","null","","",""
"","","","","","html-keyboard-response","258","2.0.0","435105","p2mpwwhb0pg","null","<div style=""font-size: 75px;"">+</div>","null","","",""
"","","","","","image-keyboard-response","259","2.0.0","436529","p2mpwwhb0pg","1419","stimuli/45_150_R.jpg","j","response","j","true"
"","","","","","html-keyboard-response","260","2.0.0","437031","p2mpwwhb0pg","null","<p style=""border: 5px solid green;"">Correct!</p>","null","","",""
"","","","","","html-keyboard-response","261","2.0.0","438034","p2mpwwhb0pg","null","<div style=""font-size: 75px;"">+</div>","null","","",""
"","","","","","image-keyboard-response","262","2.0.0","439233","p2mpwwhb0pg","1194","stimuli/25_100_R.jpg","f","response","j","false"
"","","","","","html-keyboard-response","263","2.0.0","439735","p2mpwwhb0pg","null","<p style=""border: 5px solid red;"">Incorrect.</p>","null","","",""
"","","","","","html-keyboard-response","264","2.0.0","440738","p2mpwwhb0pg","null","<div style=""font-size: 75px;"">+</div>","null","","",""
"","","","","","image-keyboard-response","265","2.0.0","443169","p2mpwwhb0pg","2429","stimuli/34_150_R.jpg","j","response","j","true"
"","","","","","html-keyboard-response","266","2.0.0","443671","p2mpwwhb0pg","null","<p style=""border: 5px solid green;"">Correct!</p>","null","","",""
"","","","","","html-keyboard-response","267","2.0.0","444674","p2mpwwhb0pg","null","<div style=""font-size: 75px;"">+</div>","null","","",""
"","","","","","image-keyboard-response","268","2.0.0","446528","p2mpwwhb0pg","1851","stimuli/48_150.jpg","f","response","f","true"
"","","","","","html-keyboard-response","269","2.0.0","447030","p2mpwwhb0pg","null","<p style=""border: 5px solid green;"">Correct!</p>","null","","",""
"","","","","","html-keyboard-response","270","2.0.0","448034","p2mpwwhb0pg","null","<div style=""font-size: 75px;"">+</div>","null","","",""
"","","","","","image-keyboard-response","271","2.0.0","450254","p2mpwwhb0pg","2218","stimuli/34_0_R.jpg","f","response","j","false"
"","","","","","html-keyboard-response","272","2.0.0","450756","p2mpwwhb0pg","null","<p style=""border: 5px solid red;"">Incorrect.</p>","null","","",""
"","","","","","html-keyboard-response","273","2.0.0","451759","p2mpwwhb0pg","null","<div style=""font-size: 75px;"">+</div>","null","","",""
"","","","","","image-keyboard-response","274","2.0.0","452493","p2mpwwhb0pg","732","stimuli/46_0.jpg","f","response","f","true"
"","","","","","html-keyboard-response","275","2.0.0","452996","p2mpwwhb0pg","null","<p style=""border: 5px solid green;"">Correct!</p>","null","","",""
"","","","","","html-keyboard-response","276","2.0.0","453998","p2mpwwhb0pg","null","<div style=""font-size: 75px;"">+</div>","null","","",""
"","","","","","image-keyboard-response","277","2.0.0","455417","p2mpwwhb0pg","1416","stimuli/18_150.jpg","f","response","f","true"
"","","","","","html-keyboard-response","278","2.0.0","455920","p2mpwwhb0pg","null","<p style=""border: 5px solid green;"">Correct!</p>","null","","",""
"","","","","","html-keyboard-response","279","2.0.0","456923","p2mpwwhb0pg","null","<div style=""font-size: 75px;"">+</div>","null","","",""
"","","","","","image-keyboard-response","280","2.0.0","457712","p2mpwwhb0pg","787","stimuli/29_0.jpg","f","response","f","true"
"","","","","","html-keyboard-response","281","2.0.0","458215","p2mpwwhb0pg","null","<p style=""border: 5px solid green;"">Correct!</p>","null","","",""
"","","","","","html-keyboard-response","282","2.0.0","459219","p2mpwwhb0pg","null","<div style=""font-size: 75px;"">+</div>","null","","",""
"","","","","","image-keyboard-response","283","2.0.0","460635","p2mpwwhb0pg","1414","stimuli/8_100_R.jpg","j","response","j","true"
"","","","","","html-keyboard-response","284","2.0.0","461137","p2mpwwhb0pg","null","<p style=""border: 5px solid green;"">Correct!</p>","null","","",""
"","","","","","html-keyboard-response","285","2.0.0","462139","p2mpwwhb0pg","null","<div style=""font-size: 75px;"">+</div>","null","","",""
"","","","","","image-keyboard-response","286","2.0.0","463769","p2mpwwhb0pg","1627","stimuli/1_100.jpg","f","response","f","true"
"","","","","","html-keyboard-response","287","2.0.0","464272","p2mpwwhb0pg","null","<p style=""border: 5px solid green;"">Correct!</p>","null","","",""
"","","","","","html-keyboard-response","288","2.0.0","465275","p2mpwwhb0pg","null","<div style=""font-size: 75px;"">+</div>","null","","",""
"","","","","","image-keyboard-response","289","2.0.0","466236","p2mpwwhb0pg","959","stimuli/19_0_R.jpg","f","response","j","false"
"","","","","","html-keyboard-response","290","2.0.0","466738","p2mpwwhb0pg","null","<p style=""border: 5px solid red;"">Incorrect.</p>","null","","",""
"","","","","","html-keyboard-response","291","2.0.0","467741","p2mpwwhb0pg","null","<div style=""font-size: 75px;"">+</div>","null","","",""
"","","","","","image-keyboard-response","292","2.0.0","470554","p2mpwwhb0pg","2810","stimuli/17_50_R.jpg","j","response","j","true"
"","","","","","html-keyboard-response","293","2.0.0","471056","p2mpwwhb0pg","null","<p style=""border: 5px solid green;"">Correct!</p>","null","","",""
"","","","","","html-keyboard-response","294","2.0.0","475054","p2mpwwhb0pg","3997","<p>Thank you for participating!</p><p>Please press space to answer our survey.</p>"," ","","",""
"","","","","","survey-html-form","295","null","627241","p2mpwwhb0pg","152181","","{""response_1"":""Moderately clear and lively"",""response_2"":""Clear and lively"",""response_3"":""Moderately clear and lively"",""response_4"":""Clear and lively"",""response_5"":""Moderately clear and lively"",""response_6"":""Dim and vague; flat"",""response_7"":""No image at all, you only “know” that you are thinking of the object"",""response_8"":""No image at all, you only “know” that you are thinking of the object"",""response_9"":""Clear and lively"",""response_10"":""No image at all, you only “know” that you are thinking of the object"",""response_11"":""Moderately clear and lively"",""response_12"":""Dim and vague; flat"",""response_13"":""Moderately clear and lively"",""response_14"":""Dim and vague; flat"",""response_15"":""Moderately clear and lively"",""response_16"":""Dim and vague; flat""}","","",""
"","","","","","survey-html-form","296","null","657056","p2mpwwhb0pg","29813","","{""age"":""21"",""gender"":""male"",""education"":""some-college"",""handedness"":""right"",""vision"":""corrected"",""technical_difficulties"":""no"",""knowledge_check"":""mental rotation based on positioning""}","","",""
