"success","timeout","failed_images","failed_audio","failed_video","trial_type","trial_index","plugin_version","time_elapsed","random_id","rt","stimulus","response","task","correct_response","correct"
"true","false","[]","[]","[]","preload","0","2.0.0","2299","p2snqdorn1d","","","","","",""
"true","","","","","fullscreen","1","2.0.0","4662","p2snqdorn1d","1360","","","","",""
"","","","","","html-keyboard-response","2","2.0.0","5505","p2snqdorn1d","841","Welcome to the experiment. Press any key to begin."," ","","",""
"","","","","","survey-text","3","2.0.0","7404","p2snqdorn1d","1895","","{""participant_id"":""cheetah""}","","",""
"","","","","","html-keyboard-response","4","2.0.0","16547","p2snqdorn1d","9140","
        <p>Welcome to the experiment.</p>
        <p>In this task, you will see pairs of images.</p>
        <p>Your job is to determine whether the image on the right is a rotated version of the image on the left.</p>
        <p>Press the <strong>F</strong> key if the images are the same.</p>
        <p>Press the <strong>J</strong> key if the images are different.</p>
        <p>Press any key to begin.</p>
    "," ","","",""
"","","","","","html-keyboard-response","5","2.0.0","17551","p2snqdorn1d","null","<div style=""font-size: 75px;"">+</div>","null","","",""
"","","","","","image-keyboard-response","6","2.0.0","27515","p2snqdorn1d","9957","stimuli/29_0_R.jpg","j","response","j","true"
"","","","","","html-keyboard-response","7","2.0.0","28018","p2snqdorn1d","null","<p style=""border: 5px solid green;"">Correct!</p>","null","","",""
"","","","","","html-keyboard-response","8","2.0.0","29022","p2snqdorn1d","null","<div style=""font-size: 75px;"">+</div>","null","","",""
"","","","","","image-keyboard-response","9","2.0.0","36276","p2snqdorn1d","7251","stimuli/45_100_R.jpg","j","response","j","true"
"","","","","","html-keyboard-response","10","2.0.0","36778","p2snqdorn1d","null","<p style=""border: 5px solid green;"">Correct!</p>","null","","",""
"","","","","","html-keyboard-response","11","2.0.0","37781","p2snqdorn1d","null","<div style=""font-size: 75px;"">+</div>","null","","",""
"","","","","","image-keyboard-response","12","2.0.0","44019","p2snqdorn1d","6235","stimuli/32_100_R.jpg","f","response","j","false"
"","","","","","html-keyboard-response","13","2.0.0","44521","p2snqdorn1d","null","<p style=""border: 5px solid red;"">Incorrect.</p>","null","","",""
"","","","","","html-keyboard-response","14","2.0.0","45525","p2snqdorn1d","null","<div style=""font-size: 75px;"">+</div>","null","","",""
"","","","","","image-keyboard-response","15","2.0.0","48141","p2snqdorn1d","2613","stimuli/34_150.jpg","j","response","f","false"
"","","","","","html-keyboard-response","16","2.0.0","48643","p2snqdorn1d","null","<p style=""border: 5px solid red;"">Incorrect.</p>","null","","",""
"","","","","","html-keyboard-response","17","2.0.0","49646","p2snqdorn1d","null","<div style=""font-size: 75px;"">+</div>","null","","",""
"","","","","","image-keyboard-response","18","2.0.0","50770","p2snqdorn1d","1121","stimuli/32_0.jpg","f","response","f","true"
"","","","","","html-keyboard-response","19","2.0.0","51272","p2snqdorn1d","null","<p style=""border: 5px solid green;"">Correct!</p>","null","","",""
"","","","","","html-keyboard-response","20","2.0.0","52276","p2snqdorn1d","null","<div style=""font-size: 75px;"">+</div>","null","","",""
"","","","","","image-keyboard-response","21","2.0.0","54822","p2snqdorn1d","2543","stimuli/18_100.jpg","f","response","f","true"
"","","","","","html-keyboard-response","22","2.0.0","55325","p2snqdorn1d","null","<p style=""border: 5px solid green;"">Correct!</p>","null","","",""
"","","","","","html-keyboard-response","23","2.0.0","56329","p2snqdorn1d","null","<div style=""font-size: 75px;"">+</div>","null","","",""
"","","","","","image-keyboard-response","24","2.0.0","57291","p2snqdorn1d","959","stimuli/33_0.jpg","f","response","f","true"
"","","","","","html-keyboard-response","25","2.0.0","57793","p2snqdorn1d","null","<p style=""border: 5px solid green;"">Correct!</p>","null","","",""
"","","","","","html-keyboard-response","26","2.0.0","58797","p2snqdorn1d","null","<div style=""font-size: 75px;"">+</div>","null","","",""
"","","","","","image-keyboard-response","27","2.0.0","63584","p2snqdorn1d","4784","stimuli/37_150.jpg","f","response","f","true"
"","","","","","html-keyboard-response","28","2.0.0","64086","p2snqdorn1d","null","<p style=""border: 5px solid green;"">Correct!</p>","null","","",""
"","","","","","html-keyboard-response","29","2.0.0","65088","p2snqdorn1d","null","<div style=""font-size: 75px;"">+</div>","null","","",""
"","","","","","image-keyboard-response","30","2.0.0","66957","p2snqdorn1d","1866","stimuli/1_100.jpg","f","response","f","true"
"","","","","","html-keyboard-response","31","2.0.0","67460","p2snqdorn1d","null","<p style=""border: 5px solid green;"">Correct!</p>","null","","",""
"","","","","","html-keyboard-response","32","2.0.0","68463","p2snqdorn1d","null","<div style=""font-size: 75px;"">+</div>","null","","",""
"","","","","","image-keyboard-response","33","2.0.0","70512","p2snqdorn1d","2045","stimuli/6_100.jpg","f","response","f","true"
"","","","","","html-keyboard-response","34","2.0.0","71014","p2snqdorn1d","null","<p style=""border: 5px solid green;"">Correct!</p>","null","","",""
"","","","","","html-keyboard-response","35","2.0.0","72018","p2snqdorn1d","null","<div style=""font-size: 75px;"">+</div>","null","","",""
"","","","","","image-keyboard-response","36","2.0.0","74371","p2snqdorn1d","2350","stimuli/34_100.jpg","f","response","f","true"
"","","","","","html-keyboard-response","37","2.0.0","74873","p2snqdorn1d","null","<p style=""border: 5px solid green;"">Correct!</p>","null","","",""
"","","","","","html-keyboard-response","38","2.0.0","75875","p2snqdorn1d","null","<div style=""font-size: 75px;"">+</div>","null","","",""
"","","","","","image-keyboard-response","39","2.0.0","77181","p2snqdorn1d","1303","stimuli/47_0_R.jpg","j","response","j","true"
"","","","","","html-keyboard-response","40","2.0.0","77684","p2snqdorn1d","null","<p style=""border: 5px solid green;"">Correct!</p>","null","","",""
"","","","","","html-keyboard-response","41","2.0.0","78687","p2snqdorn1d","null","<div style=""font-size: 75px;"">+</div>","null","","",""
"","","","","","image-keyboard-response","42","2.0.0","81542","p2snqdorn1d","2852","stimuli/14_150_R.jpg","j","response","j","true"
"","","","","","html-keyboard-response","43","2.0.0","82044","p2snqdorn1d","null","<p style=""border: 5px solid green;"">Correct!</p>","null","","",""
"","","","","","html-keyboard-response","44","2.0.0","83046","p2snqdorn1d","null","<div style=""font-size: 75px;"">+</div>","null","","",""
"","","","","","image-keyboard-response","45","2.0.0","84542","p2snqdorn1d","1494","stimuli/1_150.jpg","f","response","f","true"
"","","","","","html-keyboard-response","46","2.0.0","85045","p2snqdorn1d","null","<p style=""border: 5px solid green;"">Correct!</p>","null","","",""
"","","","","","html-keyboard-response","47","2.0.0","86049","p2snqdorn1d","null","<div style=""font-size: 75px;"">+</div>","null","","",""
"","","","","","image-keyboard-response","48","2.0.0","87620","p2snqdorn1d","1569","stimuli/40_100_R.jpg","j","response","j","true"
"","","","","","html-keyboard-response","49","2.0.0","88123","p2snqdorn1d","null","<p style=""border: 5px solid green;"">Correct!</p>","null","","",""
"","","","","","html-keyboard-response","50","2.0.0","89126","p2snqdorn1d","null","<div style=""font-size: 75px;"">+</div>","null","","",""
"","","","","","image-keyboard-response","51","2.0.0","90131","p2snqdorn1d","1002","stimuli/21_50_R.jpg","j","response","j","true"
"","","","","","html-keyboard-response","52","2.0.0","90633","p2snqdorn1d","null","<p style=""border: 5px solid green;"">Correct!</p>","null","","",""
"","","","","","html-keyboard-response","53","2.0.0","91637","p2snqdorn1d","null","<div style=""font-size: 75px;"">+</div>","null","","",""
"","","","","","image-keyboard-response","54","2.0.0","93122","p2snqdorn1d","1426","stimuli/38_50.jpg","f","response","f","true"
"","","","","","html-keyboard-response","55","2.0.0","93624","p2snqdorn1d","null","<p style=""border: 5px solid green;"">Correct!</p>","null","","",""
"","","","","","html-keyboard-response","56","2.0.0","94627","p2snqdorn1d","null","<div style=""font-size: 75px;"">+</div>","null","","",""
"","","","","","image-keyboard-response","57","2.0.0","95560","p2snqdorn1d","930","stimuli/44_50.jpg","f","response","f","true"
"","","","","","html-keyboard-response","58","2.0.0","96062","p2snqdorn1d","null","<p style=""border: 5px solid green;"">Correct!</p>","null","","",""
"","","","","","html-keyboard-response","59","2.0.0","97064","p2snqdorn1d","null","<div style=""font-size: 75px;"">+</div>","null","","",""
"","","","","","image-keyboard-response","60","2.0.0","98296","p2snqdorn1d","1229","stimuli/33_0_R.jpg","j","response","j","true"
"","","","","","html-keyboard-response","61","2.0.0","98798","p2snqdorn1d","null","<p style=""border: 5px solid green;"">Correct!</p>","null","","",""
"","","","","","html-keyboard-response","62","2.0.0","99801","p2snqdorn1d","null","<div style=""font-size: 75px;"">+</div>","null","","",""
"","","","","","image-keyboard-response","63","2.0.0","102651","p2snqdorn1d","2847","stimuli/12_150.jpg","f","response","f","true"
"","","","","","html-keyboard-response","64","2.0.0","103154","p2snqdorn1d","null","<p style=""border: 5px solid green;"">Correct!</p>","null","","",""
"","","","","","html-keyboard-response","65","2.0.0","104156","p2snqdorn1d","null","<div style=""font-size: 75px;"">+</div>","null","","",""
"","","","","","image-keyboard-response","66","2.0.0","105104","p2snqdorn1d","945","stimuli/4_0.jpg","f","response","f","true"
"","","","","","html-keyboard-response","67","2.0.0","105606","p2snqdorn1d","null","<p style=""border: 5px solid green;"">Correct!</p>","null","","",""
"","","","","","html-keyboard-response","68","2.0.0","106610","p2snqdorn1d","null","<div style=""font-size: 75px;"">+</div>","null","","",""
"","","","","","image-keyboard-response","69","2.0.0","107504","p2snqdorn1d","891","stimuli/36_50_R.jpg","j","response","j","true"
"","","","","","html-keyboard-response","70","2.0.0","108006","p2snqdorn1d","null","<p style=""border: 5px solid green;"">Correct!</p>","null","","",""
"","","","","","html-keyboard-response","71","2.0.0","109009","p2snqdorn1d","null","<div style=""font-size: 75px;"">+</div>","null","","",""
"","","","","","image-keyboard-response","72","2.0.0","111004","p2snqdorn1d","1992","stimuli/17_100.jpg","j","response","f","false"
"","","","","","html-keyboard-response","73","2.0.0","111505","p2snqdorn1d","null","<p style=""border: 5px solid red;"">Incorrect.</p>","null","","",""
"","","","","","html-keyboard-response","74","2.0.0","112508","p2snqdorn1d","null","<div style=""font-size: 75px;"">+</div>","null","","",""
"","","","","","image-keyboard-response","75","2.0.0","114702","p2snqdorn1d","2192","stimuli/47_150_R.jpg","j","response","j","true"
"","","","","","html-keyboard-response","76","2.0.0","115205","p2snqdorn1d","null","<p style=""border: 5px solid green;"">Correct!</p>","null","","",""
"","","","","","html-keyboard-response","77","2.0.0","116209","p2snqdorn1d","null","<div style=""font-size: 75px;"">+</div>","null","","",""
"","","","","","image-keyboard-response","78","2.0.0","117251","p2snqdorn1d","1039","stimuli/46_150.jpg","f","response","f","true"
"","","","","","html-keyboard-response","79","2.0.0","117753","p2snqdorn1d","null","<p style=""border: 5px solid green;"">Correct!</p>","null","","",""
"","","","","","html-keyboard-response","80","2.0.0","118756","p2snqdorn1d","null","<div style=""font-size: 75px;"">+</div>","null","","",""
"","","","","","image-keyboard-response","81","2.0.0","122590","p2snqdorn1d","3831","stimuli/7_50_R.jpg","j","response","j","true"
"","","","","","html-keyboard-response","82","2.0.0","123092","p2snqdorn1d","null","<p style=""border: 5px solid green;"">Correct!</p>","null","","",""
"","","","","","html-keyboard-response","83","2.0.0","124096","p2snqdorn1d","null","<div style=""font-size: 75px;"">+</div>","null","","",""
"","","","","","image-keyboard-response","84","2.0.0","126324","p2snqdorn1d","2226","stimuli/28_0_R.jpg","j","response","j","true"
"","","","","","html-keyboard-response","85","2.0.0","126826","p2snqdorn1d","null","<p style=""border: 5px solid green;"">Correct!</p>","null","","",""
"","","","","","html-keyboard-response","86","2.0.0","127830","p2snqdorn1d","null","<div style=""font-size: 75px;"">+</div>","null","","",""
"","","","","","image-keyboard-response","87","2.0.0","130093","p2snqdorn1d","2261","stimuli/38_150.jpg","f","response","f","true"
"","","","","","html-keyboard-response","88","2.0.0","130595","p2snqdorn1d","null","<p style=""border: 5px solid green;"">Correct!</p>","null","","",""
"","","","","","html-keyboard-response","89","2.0.0","131598","p2snqdorn1d","null","<div style=""font-size: 75px;"">+</div>","null","","",""
"","","","","","image-keyboard-response","90","2.0.0","135714","p2snqdorn1d","4113","stimuli/12_150_R.jpg","j","response","j","true"
"","","","","","html-keyboard-response","91","2.0.0","136216","p2snqdorn1d","null","<p style=""border: 5px solid green;"">Correct!</p>","null","","",""
"","","","","","html-keyboard-response","92","2.0.0","137219","p2snqdorn1d","null","<div style=""font-size: 75px;"">+</div>","null","","",""
"","","","","","image-keyboard-response","93","2.0.0","138269","p2snqdorn1d","1047","stimuli/8_0_R.jpg","j","response","j","true"
"","","","","","html-keyboard-response","94","2.0.0","138772","p2snqdorn1d","null","<p style=""border: 5px solid green;"">Correct!</p>","null","","",""
"","","","","","html-keyboard-response","95","2.0.0","139775","p2snqdorn1d","null","<div style=""font-size: 75px;"">+</div>","null","","",""
"","","","","","image-keyboard-response","96","2.0.0","141501","p2snqdorn1d","1723","stimuli/3_50.jpg","f","response","f","true"
"","","","","","html-keyboard-response","97","2.0.0","142003","p2snqdorn1d","null","<p style=""border: 5px solid green;"">Correct!</p>","null","","",""
"","","","","","html-keyboard-response","98","2.0.0","143007","p2snqdorn1d","null","<div style=""font-size: 75px;"">+</div>","null","","",""
"","","","","","image-keyboard-response","99","2.0.0","144103","p2snqdorn1d","1094","stimuli/2_0_R.jpg","j","response","j","true"
"","","","","","html-keyboard-response","100","2.0.0","144606","p2snqdorn1d","null","<p style=""border: 5px solid green;"">Correct!</p>","null","","",""
"","","","","","html-keyboard-response","101","2.0.0","145609","p2snqdorn1d","null","<div style=""font-size: 75px;"">+</div>","null","","",""
"","","","","","image-keyboard-response","102","2.0.0","147691","p2snqdorn1d","2079","stimuli/27_150.jpg","f","response","f","true"
"","","","","","html-keyboard-response","103","2.0.0","148194","p2snqdorn1d","null","<p style=""border: 5px solid green;"">Correct!</p>","null","","",""
"","","","","","html-keyboard-response","104","2.0.0","149198","p2snqdorn1d","null","<div style=""font-size: 75px;"">+</div>","null","","",""
"","","","","","image-keyboard-response","105","2.0.0","156756","p2snqdorn1d","7551","stimuli/11_150_R.jpg","j","response","j","true"
"","","","","","html-keyboard-response","106","2.0.0","157258","p2snqdorn1d","null","<p style=""border: 5px solid green;"">Correct!</p>","null","","",""
"","","","","","html-keyboard-response","107","2.0.0","158262","p2snqdorn1d","null","<div style=""font-size: 75px;"">+</div>","null","","",""
"","","","","","image-keyboard-response","108","2.0.0","160266","p2snqdorn1d","2002","stimuli/32_150_R.jpg","j","response","j","true"
"","","","","","html-keyboard-response","109","2.0.0","160768","p2snqdorn1d","null","<p style=""border: 5px solid green;"">Correct!</p>","null","","",""
"","","","","","html-keyboard-response","110","2.0.0","161771","p2snqdorn1d","null","<div style=""font-size: 75px;"">+</div>","null","","",""
"","","","","","image-keyboard-response","111","2.0.0","164609","p2snqdorn1d","2835","stimuli/35_0_R.jpg","j","response","j","true"
"","","","","","html-keyboard-response","112","2.0.0","165111","p2snqdorn1d","null","<p style=""border: 5px solid green;"">Correct!</p>","null","","",""
"","","","","","html-keyboard-response","113","2.0.0","166115","p2snqdorn1d","null","<div style=""font-size: 75px;"">+</div>","null","","",""
"","","","","","image-keyboard-response","114","2.0.0","167743","p2snqdorn1d","1626","stimuli/26_0_R.jpg","j","response","j","true"
"","","","","","html-keyboard-response","115","2.0.0","168146","p2snqdorn1d","401","<p style=""border: 5px solid green;"">Correct!</p>","j","","",""
"","","","","","html-keyboard-response","116","2.0.0","169148","p2snqdorn1d","null","<div style=""font-size: 75px;"">+</div>","null","","",""
"","","","","","image-keyboard-response","117","2.0.0","171222","p2snqdorn1d","2071","stimuli/33_150_R.jpg","j","response","j","true"
"","","","","","html-keyboard-response","118","2.0.0","171724","p2snqdorn1d","null","<p style=""border: 5px solid green;"">Correct!</p>","null","","",""
"","","","","","html-keyboard-response","119","2.0.0","172728","p2snqdorn1d","null","<div style=""font-size: 75px;"">+</div>","null","","",""
"","","","","","image-keyboard-response","120","2.0.0","173744","p2snqdorn1d","1013","stimuli/40_50_R.jpg","j","response","j","true"
"","","","","","html-keyboard-response","121","2.0.0","174246","p2snqdorn1d","null","<p style=""border: 5px solid green;"">Correct!</p>","null","","",""
"","","","","","html-keyboard-response","122","2.0.0","175249","p2snqdorn1d","null","<div style=""font-size: 75px;"">+</div>","null","","",""
"","","","","","image-keyboard-response","123","2.0.0","176186","p2snqdorn1d","935","stimuli/43_100.jpg","f","response","f","true"
"","","","","","html-keyboard-response","124","2.0.0","176689","p2snqdorn1d","null","<p style=""border: 5px solid green;"">Correct!</p>","null","","",""
"","","","","","html-keyboard-response","125","2.0.0","177693","p2snqdorn1d","null","<div style=""font-size: 75px;"">+</div>","null","","",""
"","","","","","image-keyboard-response","126","2.0.0","180174","p2snqdorn1d","2479","stimuli/17_0.jpg","f","response","f","true"
"","","","","","html-keyboard-response","127","2.0.0","180676","p2snqdorn1d","null","<p style=""border: 5px solid green;"">Correct!</p>","null","","",""
"","","","","","html-keyboard-response","128","2.0.0","181679","p2snqdorn1d","null","<div style=""font-size: 75px;"">+</div>","null","","",""
"","","","","","image-keyboard-response","129","2.0.0","184491","p2snqdorn1d","2809","stimuli/34_50.jpg","f","response","f","true"
"","","","","","html-keyboard-response","130","2.0.0","184993","p2snqdorn1d","null","<p style=""border: 5px solid green;"">Correct!</p>","null","","",""
"","","","","","html-keyboard-response","131","2.0.0","185996","p2snqdorn1d","null","<div style=""font-size: 75px;"">+</div>","null","","",""
"","","","","","image-keyboard-response","132","2.0.0","187458","p2snqdorn1d","1460","stimuli/19_50_R.jpg","f","response","j","false"
"","","","","","html-keyboard-response","133","2.0.0","187960","p2snqdorn1d","null","<p style=""border: 5px solid red;"">Incorrect.</p>","null","","",""
"","","","","","html-keyboard-response","134","2.0.0","188964","p2snqdorn1d","null","<div style=""font-size: 75px;"">+</div>","null","","",""
"","","","","","image-keyboard-response","135","2.0.0","190712","p2snqdorn1d","1746","stimuli/4_100_R.jpg","j","response","j","true"
"","","","","","html-keyboard-response","136","2.0.0","191215","p2snqdorn1d","null","<p style=""border: 5px solid green;"">Correct!</p>","null","","",""
"","","","","","html-keyboard-response","137","2.0.0","192218","p2snqdorn1d","null","<div style=""font-size: 75px;"">+</div>","null","","",""
"","","","","","image-keyboard-response","138","2.0.0","193143","p2snqdorn1d","924","stimuli/46_0.jpg","f","response","f","true"
"","","","","","html-keyboard-response","139","2.0.0","193645","p2snqdorn1d","null","<p style=""border: 5px solid green;"">Correct!</p>","null","","",""
"","","","","","html-keyboard-response","140","2.0.0","194648","p2snqdorn1d","null","<div style=""font-size: 75px;"">+</div>","null","","",""
"","","","","","image-keyboard-response","141","2.0.0","195230","p2snqdorn1d","579","stimuli/47_0.jpg","f","response","f","true"
"","","","","","html-keyboard-response","142","2.0.0","195733","p2snqdorn1d","null","<p style=""border: 5px solid green;"">Correct!</p>","null","","",""
"","","","","","html-keyboard-response","143","2.0.0","196736","p2snqdorn1d","null","<div style=""font-size: 75px;"">+</div>","null","","",""
"","","","","","image-keyboard-response","144","2.0.0","198821","p2snqdorn1d","2082","stimuli/22_150.jpg","f","response","f","true"
"","","","","","html-keyboard-response","145","2.0.0","199323","p2snqdorn1d","null","<p style=""border: 5px solid green;"">Correct!</p>","null","","",""
"","","","","","html-keyboard-response","146","2.0.0","200327","p2snqdorn1d","null","<div style=""font-size: 75px;"">+</div>","null","","",""
"","","","","","image-keyboard-response","147","2.0.0","203504","p2snqdorn1d","3174","stimuli/9_50_R.jpg","j","response","j","true"
"","","","","","html-keyboard-response","148","2.0.0","204006","p2snqdorn1d","null","<p style=""border: 5px solid green;"">Correct!</p>","null","","",""
"","","","","","html-keyboard-response","149","2.0.0","234010","p2snqdorn1d","null","<p> Take a break! Experiment continues in 30 seconds . </p>","null","","",""
"","","","","","html-keyboard-response","150","2.0.0","235014","p2snqdorn1d","null","<div style=""font-size: 75px;"">+</div>","null","","",""
"","","","","","image-keyboard-response","151","2.0.0","239460","p2snqdorn1d","4443","stimuli/36_50.jpg","j","response","f","false"
"","","","","","html-keyboard-response","152","2.0.0","239962","p2snqdorn1d","null","<p style=""border: 5px solid red;"">Incorrect.</p>","null","","",""
"","","","","","html-keyboard-response","153","2.0.0","240966","p2snqdorn1d","null","<div style=""font-size: 75px;"">+</div>","null","","",""
"","","","","","image-keyboard-response","154","2.0.0","243085","p2snqdorn1d","2117","stimuli/1_150_R.jpg","j","response","j","true"
"","","","","","html-keyboard-response","155","2.0.0","243587","p2snqdorn1d","null","<p style=""border: 5px solid green;"">Correct!</p>","null","","",""
"","","","","","html-keyboard-response","156","2.0.0","244590","p2snqdorn1d","null","<div style=""font-size: 75px;"">+</div>","null","","",""
"","","","","","image-keyboard-response","157","2.0.0","245824","p2snqdorn1d","1231","stimuli/34_0_R.jpg","j","response","j","true"
"","","","","","html-keyboard-response","158","2.0.0","246327","p2snqdorn1d","null","<p style=""border: 5px solid green;"">Correct!</p>","null","","",""
"","","","","","html-keyboard-response","159","2.0.0","247330","p2snqdorn1d","null","<div style=""font-size: 75px;"">+</div>","null","","",""
"","","","","","image-keyboard-response","160","2.0.0","248254","p2snqdorn1d","921","stimuli/37_0.jpg","f","response","f","true"
"","","","","","html-keyboard-response","161","2.0.0","248757","p2snqdorn1d","null","<p style=""border: 5px solid green;"">Correct!</p>","null","","",""
"","","","","","html-keyboard-response","162","2.0.0","249760","p2snqdorn1d","null","<div style=""font-size: 75px;"">+</div>","null","","",""
"","","","","","image-keyboard-response","163","2.0.0","252431","p2snqdorn1d","2669","stimuli/18_100_R.jpg","j","response","j","true"
"","","","","","html-keyboard-response","164","2.0.0","252933","p2snqdorn1d","null","<p style=""border: 5px solid green;"">Correct!</p>","null","","",""
"","","","","","html-keyboard-response","165","2.0.0","253937","p2snqdorn1d","null","<div style=""font-size: 75px;"">+</div>","null","","",""
"","","","","","image-keyboard-response","166","2.0.0","258561","p2snqdorn1d","4622","stimuli/36_100_R.jpg","j","response","j","true"
"","","","","","html-keyboard-response","167","2.0.0","259064","p2snqdorn1d","null","<p style=""border: 5px solid green;"">Correct!</p>","null","","",""
"","","","","","html-keyboard-response","168","2.0.0","260068","p2snqdorn1d","null","<div style=""font-size: 75px;"">+</div>","null","","",""
"","","","","","image-keyboard-response","169","2.0.0","261461","p2snqdorn1d","1390","stimuli/10_50.jpg","f","response","f","true"
"","","","","","html-keyboard-response","170","2.0.0","261963","p2snqdorn1d","null","<p style=""border: 5px solid green;"">Correct!</p>","null","","",""
"","","","","","html-keyboard-response","171","2.0.0","262966","p2snqdorn1d","null","<div style=""font-size: 75px;"">+</div>","null","","",""
"","","","","","image-keyboard-response","172","2.0.0","263844","p2snqdorn1d","876","stimuli/19_50.jpg","f","response","f","true"
"","","","","","html-keyboard-response","173","2.0.0","264347","p2snqdorn1d","null","<p style=""border: 5px solid green;"">Correct!</p>","null","","",""
"","","","","","html-keyboard-response","174","2.0.0","265350","p2snqdorn1d","null","<div style=""font-size: 75px;"">+</div>","null","","",""
"","","","","","image-keyboard-response","175","2.0.0","266057","p2snqdorn1d","704","stimuli/45_0.jpg","f","response","f","true"
"","","","","","html-keyboard-response","176","2.0.0","266560","p2snqdorn1d","null","<p style=""border: 5px solid green;"">Correct!</p>","null","","",""
"","","","","","html-keyboard-response","177","2.0.0","267563","p2snqdorn1d","null","<div style=""font-size: 75px;"">+</div>","null","","",""
"","","","","","image-keyboard-response","178","2.0.0","269670","p2snqdorn1d","2104","stimuli/32_150.jpg","f","response","f","true"
"","","","","","html-keyboard-response","179","2.0.0","270173","p2snqdorn1d","null","<p style=""border: 5px solid green;"">Correct!</p>","null","","",""
"","","","","","html-keyboard-response","180","2.0.0","271177","p2snqdorn1d","null","<div style=""font-size: 75px;"">+</div>","null","","",""
"","","","","","image-keyboard-response","181","2.0.0","277374","p2snqdorn1d","6194","stimuli/11_100.jpg","f","response","f","true"
"","","","","","html-keyboard-response","182","2.0.0","277876","p2snqdorn1d","null","<p style=""border: 5px solid green;"">Correct!</p>","null","","",""
"","","","","","html-keyboard-response","183","2.0.0","278879","p2snqdorn1d","null","<div style=""font-size: 75px;"">+</div>","null","","",""
"","","","","","image-keyboard-response","184","2.0.0","279984","p2snqdorn1d","1103","stimuli/46_50_R.jpg","j","response","j","true"
"","","","","","html-keyboard-response","185","2.0.0","280487","p2snqdorn1d","null","<p style=""border: 5px solid green;"">Correct!</p>","null","","",""
"","","","","","html-keyboard-response","186","2.0.0","281490","p2snqdorn1d","null","<div style=""font-size: 75px;"">+</div>","null","","",""
"","","","","","image-keyboard-response","187","2.0.0","283056","p2snqdorn1d","1563","stimuli/13_100.jpg","f","response","f","true"
"","","","","","html-keyboard-response","188","2.0.0","283559","p2snqdorn1d","null","<p style=""border: 5px solid green;"">Correct!</p>","null","","",""
"","","","","","html-keyboard-response","189","2.0.0","284562","p2snqdorn1d","null","<div style=""font-size: 75px;"">+</div>","null","","",""
"","","","","","image-keyboard-response","190","2.0.0","286124","p2snqdorn1d","1560","stimuli/20_50_R.jpg","j","response","j","true"
"","","","","","html-keyboard-response","191","2.0.0","286626","p2snqdorn1d","null","<p style=""border: 5px solid green;"">Correct!</p>","null","","",""
"","","","","","html-keyboard-response","192","2.0.0","287629","p2snqdorn1d","null","<div style=""font-size: 75px;"">+</div>","null","","",""
"","","","","","image-keyboard-response","193","2.0.0","289192","p2snqdorn1d","1560","stimuli/30_100_R.jpg","j","response","j","true"
"","","","","","html-keyboard-response","194","2.0.0","289695","p2snqdorn1d","null","<p style=""border: 5px solid green;"">Correct!</p>","null","","",""
"","","","","","html-keyboard-response","195","2.0.0","290698","p2snqdorn1d","null","<div style=""font-size: 75px;"">+</div>","null","","",""
"","","","","","image-keyboard-response","196","2.0.0","291388","p2snqdorn1d","687","stimuli/39_0.jpg","f","response","f","true"
"","","","","","html-keyboard-response","197","2.0.0","291889","p2snqdorn1d","null","<p style=""border: 5px solid green;"">Correct!</p>","null","","",""
"","","","","","html-keyboard-response","198","2.0.0","292892","p2snqdorn1d","null","<div style=""font-size: 75px;"">+</div>","null","","",""
"","","","","","image-keyboard-response","199","2.0.0","294080","p2snqdorn1d","1186","stimuli/25_0.jpg","f","response","f","true"
"","","","","","html-keyboard-response","200","2.0.0","294582","p2snqdorn1d","null","<p style=""border: 5px solid green;"">Correct!</p>","null","","",""
"","","","","","html-keyboard-response","201","2.0.0","295585","p2snqdorn1d","null","<div style=""font-size: 75px;"">+</div>","null","","",""
"","","","","","image-keyboard-response","202","2.0.0","296814","p2snqdorn1d","1226","stimuli/35_50_R.jpg","j","response","j","true"
"","","","","","html-keyboard-response","203","2.0.0","297316","p2snqdorn1d","null","<p style=""border: 5px solid green;"">Correct!</p>","null","","",""
"","","","","","html-keyboard-response","204","2.0.0","298319","p2snqdorn1d","null","<div style=""font-size: 75px;"">+</div>","null","","",""
"","","","","","image-keyboard-response","205","2.0.0","300650","p2snqdorn1d","2328","stimuli/7_100_R.jpg","j","response","j","true"
"","","","","","html-keyboard-response","206","2.0.0","301152","p2snqdorn1d","null","<p style=""border: 5px solid green;"">Correct!</p>","null","","",""
"","","","","","html-keyboard-response","207","2.0.0","302156","p2snqdorn1d","null","<div style=""font-size: 75px;"">+</div>","null","","",""
"","","","","","image-keyboard-response","208","2.0.0","304046","p2snqdorn1d","1882","stimuli/29_150.jpg","f","response","f","true"
"","","","","","html-keyboard-response","209","2.0.0","304548","p2snqdorn1d","null","<p style=""border: 5px solid green;"">Correct!</p>","null","","",""
"","","","","","html-keyboard-response","210","2.0.0","305552","p2snqdorn1d","null","<div style=""font-size: 75px;"">+</div>","null","","",""
"","","","","","image-keyboard-response","211","2.0.0","306987","p2snqdorn1d","1432","stimuli/4_100.jpg","f","response","f","true"
"","","","","","html-keyboard-response","212","2.0.0","307489","p2snqdorn1d","null","<p style=""border: 5px solid green;"">Correct!</p>","null","","",""
"","","","","","html-keyboard-response","213","2.0.0","308492","p2snqdorn1d","null","<div style=""font-size: 75px;"">+</div>","null","","",""
"","","","","","image-keyboard-response","214","2.0.0","310089","p2snqdorn1d","1595","stimuli/35_50.jpg","j","response","f","false"
"","","","","","html-keyboard-response","215","2.0.0","310591","p2snqdorn1d","null","<p style=""border: 5px solid red;"">Incorrect.</p>","null","","",""
"","","","","","html-keyboard-response","216","2.0.0","311594","p2snqdorn1d","null","<div style=""font-size: 75px;"">+</div>","null","","",""
"","","","","","image-keyboard-response","217","2.0.0","313015","p2snqdorn1d","1418","stimuli/28_150.jpg","f","response","f","true"
"","","","","","html-keyboard-response","218","2.0.0","313517","p2snqdorn1d","null","<p style=""border: 5px solid green;"">Correct!</p>","null","","",""
"","","","","","html-keyboard-response","219","2.0.0","314520","p2snqdorn1d","null","<div style=""font-size: 75px;"">+</div>","null","","",""
"","","","","","image-keyboard-response","220","2.0.0","316246","p2snqdorn1d","1723","stimuli/3_100.jpg","f","response","f","true"
"","","","","","html-keyboard-response","221","2.0.0","316749","p2snqdorn1d","null","<p style=""border: 5px solid green;"">Correct!</p>","null","","",""
"","","","","","html-keyboard-response","222","2.0.0","317752","p2snqdorn1d","null","<div style=""font-size: 75px;"">+</div>","null","","",""
"","","","","","image-keyboard-response","223","2.0.0","324291","p2snqdorn1d","6536","stimuli/10_100.jpg","j","response","f","false"
"","","","","","html-keyboard-response","224","2.0.0","324793","p2snqdorn1d","null","<p style=""border: 5px solid red;"">Incorrect.</p>","null","","",""
"","","","","","html-keyboard-response","225","2.0.0","325797","p2snqdorn1d","null","<div style=""font-size: 75px;"">+</div>","null","","",""
"","","","","","image-keyboard-response","226","2.0.0","328142","p2snqdorn1d","2343","stimuli/23_150_R.jpg","j","response","j","true"
"","","","","","html-keyboard-response","227","2.0.0","328645","p2snqdorn1d","null","<p style=""border: 5px solid green;"">Correct!</p>","null","","",""
"","","","","","html-keyboard-response","228","2.0.0","329648","p2snqdorn1d","null","<div style=""font-size: 75px;"">+</div>","null","","",""
"","","","","","image-keyboard-response","229","2.0.0","331851","p2snqdorn1d","2200","stimuli/46_100.jpg","f","response","f","true"
"","","","","","html-keyboard-response","230","2.0.0","332353","p2snqdorn1d","null","<p style=""border: 5px solid green;"">Correct!</p>","null","","",""
"","","","","","html-keyboard-response","231","2.0.0","333356","p2snqdorn1d","null","<div style=""font-size: 75px;"">+</div>","null","","",""
"","","","","","image-keyboard-response","232","2.0.0","334987","p2snqdorn1d","1628","stimuli/41_150_R.jpg","j","response","j","true"
"","","","","","html-keyboard-response","233","2.0.0","335489","p2snqdorn1d","null","<p style=""border: 5px solid green;"">Correct!</p>","null","","",""
"","","","","","html-keyboard-response","234","2.0.0","336493","p2snqdorn1d","null","<div style=""font-size: 75px;"">+</div>","null","","",""
"","","","","","image-keyboard-response","235","2.0.0","338282","p2snqdorn1d","1787","stimuli/28_50.jpg","f","response","f","true"
"","","","","","html-keyboard-response","236","2.0.0","338785","p2snqdorn1d","null","<p style=""border: 5px solid green;"">Correct!</p>","null","","",""
"","","","","","html-keyboard-response","237","2.0.0","339789","p2snqdorn1d","null","<div style=""font-size: 75px;"">+</div>","null","","",""
"","","","","","image-keyboard-response","238","2.0.0","341337","p2snqdorn1d","1546","stimuli/16_100_R.jpg","j","response","j","true"
"","","","","","html-keyboard-response","239","2.0.0","341840","p2snqdorn1d","null","<p style=""border: 5px solid green;"">Correct!</p>","null","","",""
"","","","","","html-keyboard-response","240","2.0.0","342843","p2snqdorn1d","null","<div style=""font-size: 75px;"">+</div>","null","","",""
"","","","","","image-keyboard-response","241","2.0.0","344348","p2snqdorn1d","1503","stimuli/21_150_R.jpg","j","response","j","true"
"","","","","","html-keyboard-response","242","2.0.0","344851","p2snqdorn1d","null","<p style=""border: 5px solid green;"">Correct!</p>","null","","",""
"","","","","","html-keyboard-response","243","2.0.0","345853","p2snqdorn1d","null","<div style=""font-size: 75px;"">+</div>","null","","",""
"","","","","","image-keyboard-response","244","2.0.0","347124","p2snqdorn1d","1268","stimuli/22_100_R.jpg","j","response","j","true"
"","","","","","html-keyboard-response","245","2.0.0","347626","p2snqdorn1d","null","<p style=""border: 5px solid green;"">Correct!</p>","null","","",""
"","","","","","html-keyboard-response","246","2.0.0","348629","p2snqdorn1d","null","<div style=""font-size: 75px;"">+</div>","null","","",""
"","","","","","image-keyboard-response","247","2.0.0","349439","p2snqdorn1d","807","stimuli/11_0.jpg","f","response","f","true"
"","","","","","html-keyboard-response","248","2.0.0","349941","p2snqdorn1d","null","<p style=""border: 5px solid green;"">Correct!</p>","null","","",""
"","","","","","html-keyboard-response","249","2.0.0","350944","p2snqdorn1d","null","<div style=""font-size: 75px;"">+</div>","null","","",""
"","","","","","image-keyboard-response","250","2.0.0","352769","p2snqdorn1d","1822","stimuli/40_0_R.jpg","j","response","j","true"
"","","","","","html-keyboard-response","251","2.0.0","353271","p2snqdorn1d","null","<p style=""border: 5px solid green;"">Correct!</p>","null","","",""
"","","","","","html-keyboard-response","252","2.0.0","354274","p2snqdorn1d","null","<div style=""font-size: 75px;"">+</div>","null","","",""
"","","","","","image-keyboard-response","253","2.0.0","355846","p2snqdorn1d","1569","stimuli/11_0_R.jpg","j","response","j","true"
"","","","","","html-keyboard-response","254","2.0.0","356349","p2snqdorn1d","null","<p style=""border: 5px solid green;"">Correct!</p>","null","","",""
"","","","","","html-keyboard-response","255","2.0.0","357351","p2snqdorn1d","null","<div style=""font-size: 75px;"">+</div>","null","","",""
"","","","","","image-keyboard-response","256","2.0.0","359074","p2snqdorn1d","1720","stimuli/29_50_R.jpg","j","response","j","true"
"","","","","","html-keyboard-response","257","2.0.0","359577","p2snqdorn1d","null","<p style=""border: 5px solid green;"">Correct!</p>","null","","",""
"","","","","","html-keyboard-response","258","2.0.0","360581","p2snqdorn1d","null","<div style=""font-size: 75px;"">+</div>","null","","",""
"","","","","","image-keyboard-response","259","2.0.0","361711","p2snqdorn1d","1127","stimuli/30_50.jpg","f","response","f","true"
"","","","","","html-keyboard-response","260","2.0.0","362213","p2snqdorn1d","null","<p style=""border: 5px solid green;"">Correct!</p>","null","","",""
"","","","","","html-keyboard-response","261","2.0.0","363215","p2snqdorn1d","null","<div style=""font-size: 75px;"">+</div>","null","","",""
"","","","","","image-keyboard-response","262","2.0.0","364611","p2snqdorn1d","1393","stimuli/37_50_R.jpg","j","response","j","true"
"","","","","","html-keyboard-response","263","2.0.0","365114","p2snqdorn1d","null","<p style=""border: 5px solid green;"">Correct!</p>","null","","",""
"","","","","","html-keyboard-response","264","2.0.0","366117","p2snqdorn1d","null","<div style=""font-size: 75px;"">+</div>","null","","",""
"","","","","","image-keyboard-response","265","2.0.0","367278","p2snqdorn1d","1158","stimuli/10_0_R.jpg","j","response","j","true"
"","","","","","html-keyboard-response","266","2.0.0","367781","p2snqdorn1d","null","<p style=""border: 5px solid green;"">Correct!</p>","null","","",""
"","","","","","html-keyboard-response","267","2.0.0","368784","p2snqdorn1d","null","<div style=""font-size: 75px;"">+</div>","null","","",""
"","","","","","image-keyboard-response","268","2.0.0","371312","p2snqdorn1d","2525","stimuli/40_50.jpg","f","response","f","true"
"","","","","","html-keyboard-response","269","2.0.0","371814","p2snqdorn1d","null","<p style=""border: 5px solid green;"">Correct!</p>","null","","",""
"","","","","","html-keyboard-response","270","2.0.0","372818","p2snqdorn1d","null","<div style=""font-size: 75px;"">+</div>","null","","",""
"","","","","","image-keyboard-response","271","2.0.0","374929","p2snqdorn1d","2109","stimuli/41_100_R.jpg","j","response","j","true"
"","","","","","html-keyboard-response","272","2.0.0","375432","p2snqdorn1d","null","<p style=""border: 5px solid green;"">Correct!</p>","null","","",""
"","","","","","html-keyboard-response","273","2.0.0","376435","p2snqdorn1d","null","<div style=""font-size: 75px;"">+</div>","null","","",""
"","","","","","image-keyboard-response","274","2.0.0","377927","p2snqdorn1d","1489","stimuli/13_100_R.jpg","j","response","j","true"
"","","","","","html-keyboard-response","275","2.0.0","378430","p2snqdorn1d","null","<p style=""border: 5px solid green;"">Correct!</p>","null","","",""
"","","","","","html-keyboard-response","276","2.0.0","379433","p2snqdorn1d","null","<div style=""font-size: 75px;"">+</div>","null","","",""
"","","","","","image-keyboard-response","277","2.0.0","380647","p2snqdorn1d","1212","stimuli/45_50_R.jpg","j","response","j","true"
"","","","","","html-keyboard-response","278","2.0.0","381149","p2snqdorn1d","null","<p style=""border: 5px solid green;"">Correct!</p>","null","","",""
"","","","","","html-keyboard-response","279","2.0.0","382152","p2snqdorn1d","null","<div style=""font-size: 75px;"">+</div>","null","","",""
"","","","","","image-keyboard-response","280","2.0.0","383368","p2snqdorn1d","1214","stimuli/24_50.jpg","f","response","f","true"
"","","","","","html-keyboard-response","281","2.0.0","383870","p2snqdorn1d","null","<p style=""border: 5px solid green;"">Correct!</p>","null","","",""
"","","","","","html-keyboard-response","282","2.0.0","384874","p2snqdorn1d","null","<div style=""font-size: 75px;"">+</div>","null","","",""
"","","","","","image-keyboard-response","283","2.0.0","386633","p2snqdorn1d","1756","stimuli/13_150_R.jpg","j","response","j","true"
"","","","","","html-keyboard-response","284","2.0.0","387135","p2snqdorn1d","null","<p style=""border: 5px solid green;"">Correct!</p>","null","","",""
"","","","","","html-keyboard-response","285","2.0.0","388139","p2snqdorn1d","null","<div style=""font-size: 75px;"">+</div>","null","","",""
"","","","","","image-keyboard-response","286","2.0.0","389480","p2snqdorn1d","1339","stimuli/22_0.jpg","f","response","f","true"
"","","","","","html-keyboard-response","287","2.0.0","389982","p2snqdorn1d","null","<p style=""border: 5px solid green;"">Correct!</p>","null","","",""
"","","","","","html-keyboard-response","288","2.0.0","390984","p2snqdorn1d","null","<div style=""font-size: 75px;"">+</div>","null","","",""
"","","","","","image-keyboard-response","289","2.0.0","391985","p2snqdorn1d","998","stimuli/7_150_R.jpg","j","response","j","true"
"","","","","","html-keyboard-response","290","2.0.0","392487","p2snqdorn1d","null","<p style=""border: 5px solid green;"">Correct!</p>","null","","",""
"","","","","","html-keyboard-response","291","2.0.0","393490","p2snqdorn1d","null","<div style=""font-size: 75px;"">+</div>","null","","",""
"","","","","","image-keyboard-response","292","2.0.0","396993","p2snqdorn1d","3500","stimuli/33_150.jpg","f","response","f","true"
"","","","","","html-keyboard-response","293","2.0.0","397496","p2snqdorn1d","null","<p style=""border: 5px solid green;"">Correct!</p>","null","","",""
"","","","","","html-keyboard-response","294","2.0.0","398728","p2snqdorn1d","1230","<p>Thank you for participating!</p><p>Please press space to answer our survey.</p>"," ","","",""
"","","","","","survey-html-form","295","null","532995","p2snqdorn1d","134261","","{""response_1"":""Clear and lively"",""response_2"":""Moderately clear and lively"",""response_3"":""Moderately clear and lively"",""response_4"":""Clear and lively"",""response_5"":""Clear and lively"",""response_6"":""Clear and lively"",""response_7"":""Clear and lively"",""response_8"":""Clear and lively"",""response_9"":""Moderately clear and lively"",""response_10"":""Dim and vague; flat"",""response_11"":""Moderately clear and lively"",""response_12"":""Perfectly clear and lively as real seeing"",""response_13"":""Moderately clear and lively"",""response_14"":""Dim and vague; flat"",""response_15"":""Moderately clear and lively"",""response_16"":""Clear and lively""}","","",""
"","","","","","survey-html-form","296","null","579699","p2snqdorn1d","46700","","{""age"":""24"",""gender"":""male"",""education"":""bachelors"",""handedness"":""right"",""vision"":""corrected"",""technical_difficulties"":""none."",""knowledge_check"":""My mental rotation of objects or ability to imagine things clearly.""}","","",""
