"success","timeout","failed_images","failed_audio","failed_video","trial_type","trial_index","plugin_version","time_elapsed","random_id","rt","stimulus","response","task","correct_response","correct"
"true","false","[]","[]","[]","preload","0","2.0.0","2819","p309nparx8z","","","","","",""
"true","","","","","fullscreen","1","2.0.0","6544","p309nparx8z","2722","","","","",""
"","","","","","html-keyboard-response","2","2.0.0","8367","p309nparx8z","1820","Welcome to the experiment. Press any key to begin."," ","","",""
"","","","","","survey-text","3","2.0.0","18706","p309nparx8z","10335","","{""participant_id"":""cricket""}","","",""
"","","","","","html-keyboard-response","4","2.0.0","49195","p309nparx8z","30488","
        <p>Welcome to the experiment.</p>
        <p>In this task, you will see pairs of images.</p>
        <p>Your job is to determine whether the image on the right is a rotated version of the image on the left.</p>
        <p>Press the <strong>F</strong> key if the images are the same.</p>
        <p>Press the <strong>J</strong> key if the images are different.</p>
        <p>Press any key to begin.</p>
    "," ","","",""
"","","","","","html-keyboard-response","5","2.0.0","50199","p309nparx8z","null","<div style=""font-size: 75px;"">+</div>","null","","",""
"","","","","","image-keyboard-response","6","2.0.0","57995","p309nparx8z","7781","stimuli/18_0.jpg","f","response","f","true"
"","","","","","html-keyboard-response","7","2.0.0","58498","p309nparx8z","null","<p style=""border: 5px solid green;"">Correct!</p>","null","","",""
"","","","","","html-keyboard-response","8","2.0.0","59500","p309nparx8z","null","<div style=""font-size: 75px;"">+</div>","null","","",""
"","","","","","image-keyboard-response","9","2.0.0","62621","p309nparx8z","3119","stimuli/19_0.jpg","f","response","f","true"
"","","","","","html-keyboard-response","10","2.0.0","63124","p309nparx8z","null","<p style=""border: 5px solid green;"">Correct!</p>","null","","",""
"","","","","","html-keyboard-response","11","2.0.0","64126","p309nparx8z","null","<div style=""font-size: 75px;"">+</div>","null","","",""
"","","","","","image-keyboard-response","12","2.0.0","71322","p309nparx8z","7195","stimuli/40_150.jpg","f","response","f","true"
"","","","","","html-keyboard-response","13","2.0.0","71825","p309nparx8z","null","<p style=""border: 5px solid green;"">Correct!</p>","null","","",""
"","","","","","html-keyboard-response","14","2.0.0","72827","p309nparx8z","null","<div style=""font-size: 75px;"">+</div>","null","","",""
"","","","","","image-keyboard-response","15","2.0.0","77338","p309nparx8z","4509","stimuli/29_0_R.jpg","j","response","j","true"
"","","","","","html-keyboard-response","16","2.0.0","77841","p309nparx8z","null","<p style=""border: 5px solid green;"">Correct!</p>","null","","",""
"","","","","","html-keyboard-response","17","2.0.0","78844","p309nparx8z","null","<div style=""font-size: 75px;"">+</div>","null","","",""
"","","","","","image-keyboard-response","18","2.0.0","85981","p309nparx8z","7126","stimuli/14_150_R.jpg","j","response","j","true"
"","","","","","html-keyboard-response","19","2.0.0","86484","p309nparx8z","null","<p style=""border: 5px solid green;"">Correct!</p>","null","","",""
"","","","","","html-keyboard-response","20","2.0.0","87487","p309nparx8z","null","<div style=""font-size: 75px;"">+</div>","null","","",""
"","","","","","image-keyboard-response","21","2.0.0","91626","p309nparx8z","4138","stimuli/14_150.jpg","j","response","f","false"
"","","","","","html-keyboard-response","22","2.0.0","92129","p309nparx8z","null","<p style=""border: 5px solid red;"">Incorrect.</p>","null","","",""
"","","","","","html-keyboard-response","23","2.0.0","93131","p309nparx8z","null","<div style=""font-size: 75px;"">+</div>","null","","",""
"","","","","","image-keyboard-response","24","2.0.0","102901","p309nparx8z","9768","stimuli/25_50_R.jpg","j","response","j","true"
"","","","","","html-keyboard-response","25","2.0.0","103403","p309nparx8z","null","<p style=""border: 5px solid green;"">Correct!</p>","null","","",""
"","","","","","html-keyboard-response","26","2.0.0","104405","p309nparx8z","null","<div style=""font-size: 75px;"">+</div>","null","","",""
"","","","","","image-keyboard-response","27","2.0.0","107874","p309nparx8z","3467","stimuli/11_0.jpg","f","response","f","true"
"","","","","","html-keyboard-response","28","2.0.0","108376","p309nparx8z","null","<p style=""border: 5px solid green;"">Correct!</p>","null","","",""
"","","","","","html-keyboard-response","29","2.0.0","109379","p309nparx8z","null","<div style=""font-size: 75px;"">+</div>","null","","",""
"","","","","","image-keyboard-response","30","2.0.0","115325","p309nparx8z","5944","stimuli/11_50.jpg","f","response","f","true"
"","","","","","html-keyboard-response","31","2.0.0","115827","p309nparx8z","null","<p style=""border: 5px solid green;"">Correct!</p>","null","","",""
"","","","","","html-keyboard-response","32","2.0.0","116829","p309nparx8z","null","<div style=""font-size: 75px;"">+</div>","null","","",""
"","","","","","image-keyboard-response","33","2.0.0","119377","p309nparx8z","2546","stimuli/11_150_R.jpg","j","response","j","true"
"","","","","","html-keyboard-response","34","2.0.0","119880","p309nparx8z","null","<p style=""border: 5px solid green;"">Correct!</p>","null","","",""
"","","","","","html-keyboard-response","35","2.0.0","120883","p309nparx8z","null","<div style=""font-size: 75px;"">+</div>","null","","",""
"","","","","","image-keyboard-response","36","2.0.0","124025","p309nparx8z","3140","stimuli/9_150.jpg","f","response","f","true"
"","","","","","html-keyboard-response","37","2.0.0","124527","p309nparx8z","null","<p style=""border: 5px solid green;"">Correct!</p>","null","","",""
"","","","","","html-keyboard-response","38","2.0.0","125529","p309nparx8z","null","<div style=""font-size: 75px;"">+</div>","null","","",""
"","","","","","image-keyboard-response","39","2.0.0","130316","p309nparx8z","4785","stimuli/47_50.jpg","f","response","f","true"
"","","","","","html-keyboard-response","40","2.0.0","130817","p309nparx8z","null","<p style=""border: 5px solid green;"">Correct!</p>","null","","",""
"","","","","","html-keyboard-response","41","2.0.0","131819","p309nparx8z","null","<div style=""font-size: 75px;"">+</div>","null","","",""
"","","","","","image-keyboard-response","42","2.0.0","135752","p309nparx8z","3931","stimuli/48_0_R.jpg","j","response","j","true"
"","","","","","html-keyboard-response","43","2.0.0","136254","p309nparx8z","null","<p style=""border: 5px solid green;"">Correct!</p>","null","","",""
"","","","","","html-keyboard-response","44","2.0.0","137256","p309nparx8z","null","<div style=""font-size: 75px;"">+</div>","null","","",""
"","","","","","image-keyboard-response","45","2.0.0","142435","p309nparx8z","5177","stimuli/26_150.jpg","j","response","f","false"
"","","","","","html-keyboard-response","46","2.0.0","142937","p309nparx8z","null","<p style=""border: 5px solid red;"">Incorrect.</p>","null","","",""
"","","","","","html-keyboard-response","47","2.0.0","143939","p309nparx8z","null","<div style=""font-size: 75px;"">+</div>","null","","",""
"","","","","","image-keyboard-response","48","2.0.0","152264","p309nparx8z","8324","stimuli/42_0_R.jpg","j","response","j","true"
"","","","","","html-keyboard-response","49","2.0.0","152766","p309nparx8z","null","<p style=""border: 5px solid green;"">Correct!</p>","null","","",""
"","","","","","html-keyboard-response","50","2.0.0","153769","p309nparx8z","null","<div style=""font-size: 75px;"">+</div>","null","","",""
"","","","","","image-keyboard-response","51","2.0.0","158099","p309nparx8z","4328","stimuli/7_50_R.jpg","j","response","j","true"
"","","","","","html-keyboard-response","52","2.0.0","158600","p309nparx8z","null","<p style=""border: 5px solid green;"">Correct!</p>","null","","",""
"","","","","","html-keyboard-response","53","2.0.0","159603","p309nparx8z","null","<div style=""font-size: 75px;"">+</div>","null","","",""
"","","","","","image-keyboard-response","54","2.0.0","166384","p309nparx8z","6780","stimuli/20_150_R.jpg","j","response","j","true"
"","","","","","html-keyboard-response","55","2.0.0","166886","p309nparx8z","null","<p style=""border: 5px solid green;"">Correct!</p>","null","","",""
"","","","","","html-keyboard-response","56","2.0.0","167889","p309nparx8z","null","<div style=""font-size: 75px;"">+</div>","null","","",""
"","","","","","image-keyboard-response","57","2.0.0","177898","p309nparx8z","10007","stimuli/25_0_R.jpg","j","response","j","true"
"","","","","","html-keyboard-response","58","2.0.0","178399","p309nparx8z","null","<p style=""border: 5px solid green;"">Correct!</p>","null","","",""
"","","","","","html-keyboard-response","59","2.0.0","179402","p309nparx8z","null","<div style=""font-size: 75px;"">+</div>","null","","",""
"","","","","","image-keyboard-response","60","2.0.0","190424","p309nparx8z","11021","stimuli/46_150_R.jpg","j","response","j","true"
"","","","","","html-keyboard-response","61","2.0.0","190925","p309nparx8z","null","<p style=""border: 5px solid green;"">Correct!</p>","null","","",""
"","","","","","html-keyboard-response","62","2.0.0","191928","p309nparx8z","null","<div style=""font-size: 75px;"">+</div>","null","","",""
"","","","","","image-keyboard-response","63","2.0.0","196658","p309nparx8z","4728","stimuli/19_100_R.jpg","j","response","j","true"
"","","","","","html-keyboard-response","64","2.0.0","197160","p309nparx8z","null","<p style=""border: 5px solid green;"">Correct!</p>","null","","",""
"","","","","","html-keyboard-response","65","2.0.0","198162","p309nparx8z","null","<div style=""font-size: 75px;"">+</div>","null","","",""
"","","","","","image-keyboard-response","66","2.0.0","203807","p309nparx8z","5643","stimuli/36_50.jpg","f","response","f","true"
"","","","","","html-keyboard-response","67","2.0.0","204310","p309nparx8z","null","<p style=""border: 5px solid green;"">Correct!</p>","null","","",""
"","","","","","html-keyboard-response","68","2.0.0","205312","p309nparx8z","null","<div style=""font-size: 75px;"">+</div>","null","","",""
"","","","","","image-keyboard-response","69","2.0.0","209287","p309nparx8z","3973","stimuli/3_50_R.jpg","j","response","j","true"
"","","","","","html-keyboard-response","70","2.0.0","209789","p309nparx8z","null","<p style=""border: 5px solid green;"">Correct!</p>","null","","",""
"","","","","","html-keyboard-response","71","2.0.0","210790","p309nparx8z","null","<div style=""font-size: 75px;"">+</div>","null","","",""
"","","","","","image-keyboard-response","72","2.0.0","223594","p309nparx8z","12802","stimuli/4_0_R.jpg","j","response","j","true"
"","","","","","html-keyboard-response","73","2.0.0","224097","p309nparx8z","null","<p style=""border: 5px solid green;"">Correct!</p>","null","","",""
"","","","","","html-keyboard-response","74","2.0.0","225099","p309nparx8z","null","<div style=""font-size: 75px;"">+</div>","null","","",""
"","","","","","image-keyboard-response","75","2.0.0","239407","p309nparx8z","14306","stimuli/14_0_R.jpg","j","response","j","true"
"","","","","","html-keyboard-response","76","2.0.0","239909","p309nparx8z","null","<p style=""border: 5px solid green;"">Correct!</p>","null","","",""
"","","","","","html-keyboard-response","77","2.0.0","240912","p309nparx8z","null","<div style=""font-size: 75px;"">+</div>","null","","",""
"","","","","","image-keyboard-response","78","2.0.0","246326","p309nparx8z","5412","stimuli/13_100.jpg","f","response","f","true"
"","","","","","html-keyboard-response","79","2.0.0","246827","p309nparx8z","null","<p style=""border: 5px solid green;"">Correct!</p>","null","","",""
"","","","","","html-keyboard-response","80","2.0.0","247829","p309nparx8z","null","<div style=""font-size: 75px;"">+</div>","null","","",""
"","","","","","image-keyboard-response","81","2.0.0","251358","p309nparx8z","3527","stimuli/41_50_R.jpg","j","response","j","true"
"","","","","","html-keyboard-response","82","2.0.0","251860","p309nparx8z","null","<p style=""border: 5px solid green;"">Correct!</p>","null","","",""
"","","","","","html-keyboard-response","83","2.0.0","252863","p309nparx8z","null","<div style=""font-size: 75px;"">+</div>","null","","",""
"","","","","","image-keyboard-response","84","2.0.0","257624","p309nparx8z","4759","stimuli/17_50_R.jpg","j","response","j","true"
"","","","","","html-keyboard-response","85","2.0.0","258126","p309nparx8z","null","<p style=""border: 5px solid green;"">Correct!</p>","null","","",""
"","","","","","html-keyboard-response","86","2.0.0","259128","p309nparx8z","null","<div style=""font-size: 75px;"">+</div>","null","","",""
"","","","","","image-keyboard-response","87","2.0.0","265029","p309nparx8z","5899","stimuli/1_100.jpg","f","response","f","true"
"","","","","","html-keyboard-response","88","2.0.0","265531","p309nparx8z","null","<p style=""border: 5px solid green;"">Correct!</p>","null","","",""
"","","","","","html-keyboard-response","89","2.0.0","266534","p309nparx8z","null","<div style=""font-size: 75px;"">+</div>","null","","",""
"","","","","","image-keyboard-response","90","2.0.0","280021","p309nparx8z","13486","stimuli/32_100_R.jpg","j","response","j","true"
"","","","","","html-keyboard-response","91","2.0.0","280523","p309nparx8z","null","<p style=""border: 5px solid green;"">Correct!</p>","null","","",""
"","","","","","html-keyboard-response","92","2.0.0","281525","p309nparx8z","null","<div style=""font-size: 75px;"">+</div>","null","","",""
"","","","","","image-keyboard-response","93","2.0.0","283565","p309nparx8z","2037","stimuli/22_50.jpg","f","response","f","true"
"","","","","","html-keyboard-response","94","2.0.0","284066","p309nparx8z","null","<p style=""border: 5px solid green;"">Correct!</p>","null","","",""
"","","","","","html-keyboard-response","95","2.0.0","285069","p309nparx8z","null","<div style=""font-size: 75px;"">+</div>","null","","",""
"","","","","","image-keyboard-response","96","2.0.0","289117","p309nparx8z","4046","stimuli/6_150_R.jpg","j","response","j","true"
"","","","","","html-keyboard-response","97","2.0.0","289619","p309nparx8z","null","<p style=""border: 5px solid green;"">Correct!</p>","null","","",""
"","","","","","html-keyboard-response","98","2.0.0","290622","p309nparx8z","null","<div style=""font-size: 75px;"">+</div>","null","","",""
"","","","","","image-keyboard-response","99","2.0.0","298941","p309nparx8z","8318","stimuli/5_100.jpg","f","response","f","true"
"","","","","","html-keyboard-response","100","2.0.0","299444","p309nparx8z","null","<p style=""border: 5px solid green;"">Correct!</p>","null","","",""
"","","","","","html-keyboard-response","101","2.0.0","300445","p309nparx8z","null","<div style=""font-size: 75px;"">+</div>","null","","",""
"","","","","","image-keyboard-response","102","2.0.0","302540","p309nparx8z","2093","stimuli/12_50_R.jpg","j","response","j","true"
"","","","","","html-keyboard-response","103","2.0.0","303043","p309nparx8z","null","<p style=""border: 5px solid green;"">Correct!</p>","null","","",""
"","","","","","html-keyboard-response","104","2.0.0","304045","p309nparx8z","null","<div style=""font-size: 75px;"">+</div>","null","","",""
"","","","","","image-keyboard-response","105","2.0.0","306123","p309nparx8z","2077","stimuli/33_0.jpg","f","response","f","true"
"","","","","","html-keyboard-response","106","2.0.0","306625","p309nparx8z","null","<p style=""border: 5px solid green;"">Correct!</p>","null","","",""
"","","","","","html-keyboard-response","107","2.0.0","307628","p309nparx8z","null","<div style=""font-size: 75px;"">+</div>","null","","",""
"","","","","","image-keyboard-response","108","2.0.0","315469","p309nparx8z","7840","stimuli/2_150_R.jpg","j","response","j","true"
"","","","","","html-keyboard-response","109","2.0.0","315970","p309nparx8z","null","<p style=""border: 5px solid green;"">Correct!</p>","null","","",""
"","","","","","html-keyboard-response","110","2.0.0","316973","p309nparx8z","null","<div style=""font-size: 75px;"">+</div>","null","","",""
"","","","","","image-keyboard-response","111","2.0.0","321092","p309nparx8z","4117","stimuli/31_0.jpg","f","response","f","true"
"","","","","","html-keyboard-response","112","2.0.0","321595","p309nparx8z","null","<p style=""border: 5px solid green;"">Correct!</p>","null","","",""
"","","","","","html-keyboard-response","113","2.0.0","322598","p309nparx8z","null","<div style=""font-size: 75px;"">+</div>","null","","",""
"","","","","","image-keyboard-response","114","2.0.0","330324","p309nparx8z","7725","stimuli/16_150_R.jpg","j","response","j","true"
"","","","","","html-keyboard-response","115","2.0.0","330826","p309nparx8z","null","<p style=""border: 5px solid green;"">Correct!</p>","null","","",""
"","","","","","html-keyboard-response","116","2.0.0","331829","p309nparx8z","null","<div style=""font-size: 75px;"">+</div>","null","","",""
"","","","","","image-keyboard-response","117","2.0.0","336014","p309nparx8z","4183","stimuli/30_100.jpg","f","response","f","true"
"","","","","","html-keyboard-response","118","2.0.0","336516","p309nparx8z","null","<p style=""border: 5px solid green;"">Correct!</p>","null","","",""
"","","","","","html-keyboard-response","119","2.0.0","337518","p309nparx8z","null","<div style=""font-size: 75px;"">+</div>","null","","",""
"","","","","","image-keyboard-response","120","2.0.0","343321","p309nparx8z","5801","stimuli/34_150.jpg","f","response","f","true"
"","","","","","html-keyboard-response","121","2.0.0","343823","p309nparx8z","null","<p style=""border: 5px solid green;"">Correct!</p>","null","","",""
"","","","","","html-keyboard-response","122","2.0.0","344826","p309nparx8z","null","<div style=""font-size: 75px;"">+</div>","null","","",""
"","","","","","image-keyboard-response","123","2.0.0","348366","p309nparx8z","3537","stimuli/44_50_R.jpg","j","response","j","true"
"","","","","","html-keyboard-response","124","2.0.0","348868","p309nparx8z","null","<p style=""border: 5px solid green;"">Correct!</p>","null","","",""
"","","","","","html-keyboard-response","125","2.0.0","349871","p309nparx8z","null","<div style=""font-size: 75px;"">+</div>","null","","",""
"","","","","","image-keyboard-response","126","2.0.0","354070","p309nparx8z","4196","stimuli/47_100.jpg","f","response","f","true"
"","","","","","html-keyboard-response","127","2.0.0","354571","p309nparx8z","null","<p style=""border: 5px solid green;"">Correct!</p>","null","","",""
"","","","","","html-keyboard-response","128","2.0.0","355574","p309nparx8z","null","<div style=""font-size: 75px;"">+</div>","null","","",""
"","","","","","image-keyboard-response","129","2.0.0","357935","p309nparx8z","2360","stimuli/1_150.jpg","f","response","f","true"
"","","","","","html-keyboard-response","130","2.0.0","358437","p309nparx8z","null","<p style=""border: 5px solid green;"">Correct!</p>","null","","",""
"","","","","","html-keyboard-response","131","2.0.0","359439","p309nparx8z","null","<div style=""font-size: 75px;"">+</div>","null","","",""
"","","","","","image-keyboard-response","132","2.0.0","364028","p309nparx8z","4588","stimuli/17_150.jpg","f","response","f","true"
"","","","","","html-keyboard-response","133","2.0.0","364531","p309nparx8z","null","<p style=""border: 5px solid green;"">Correct!</p>","null","","",""
"","","","","","html-keyboard-response","134","2.0.0","365534","p309nparx8z","null","<div style=""font-size: 75px;"">+</div>","null","","",""
"","","","","","image-keyboard-response","135","2.0.0","367127","p309nparx8z","1592","stimuli/44_0.jpg","f","response","f","true"
"","","","","","html-keyboard-response","136","2.0.0","367629","p309nparx8z","null","<p style=""border: 5px solid green;"">Correct!</p>","null","","",""
"","","","","","html-keyboard-response","137","2.0.0","368631","p309nparx8z","null","<div style=""font-size: 75px;"">+</div>","null","","",""
"","","","","","image-keyboard-response","138","2.0.0","373436","p309nparx8z","4803","stimuli/25_100_R.jpg","j","response","j","true"
"","","","","","html-keyboard-response","139","2.0.0","373939","p309nparx8z","null","<p style=""border: 5px solid green;"">Correct!</p>","null","","",""
"","","","","","html-keyboard-response","140","2.0.0","374941","p309nparx8z","null","<div style=""font-size: 75px;"">+</div>","null","","",""
"","","","","","image-keyboard-response","141","2.0.0","379620","p309nparx8z","4677","stimuli/18_150_R.jpg","j","response","j","true"
"","","","","","html-keyboard-response","142","2.0.0","380122","p309nparx8z","null","<p style=""border: 5px solid green;"">Correct!</p>","null","","",""
"","","","","","html-keyboard-response","143","2.0.0","381124","p309nparx8z","null","<div style=""font-size: 75px;"">+</div>","null","","",""
"","","","","","image-keyboard-response","144","2.0.0","382549","p309nparx8z","1424","stimuli/15_0.jpg","f","response","f","true"
"","","","","","html-keyboard-response","145","2.0.0","383051","p309nparx8z","null","<p style=""border: 5px solid green;"">Correct!</p>","null","","",""
"","","","","","html-keyboard-response","146","2.0.0","384054","p309nparx8z","null","<div style=""font-size: 75px;"">+</div>","null","","",""
"","","","","","image-keyboard-response","147","2.0.0","387741","p309nparx8z","3685","stimuli/1_0_R.jpg","j","response","j","true"
"","","","","","html-keyboard-response","148","2.0.0","388243","p309nparx8z","null","<p style=""border: 5px solid green;"">Correct!</p>","null","","",""
"","","","","","html-keyboard-response","149","2.0.0","418244","p309nparx8z","null","<p> Take a break! Experiment continues in 30 seconds . </p>","null","","",""
"","","","","","html-keyboard-response","150","2.0.0","419247","p309nparx8z","null","<div style=""font-size: 75px;"">+</div>","null","","",""
"","","","","","image-keyboard-response","151","2.0.0","426496","p309nparx8z","7247","stimuli/35_100_R.jpg","j","response","j","true"
"","","","","","html-keyboard-response","152","2.0.0","426998","p309nparx8z","null","<p style=""border: 5px solid green;"">Correct!</p>","null","","",""
"","","","","","html-keyboard-response","153","2.0.0","428001","p309nparx8z","null","<div style=""font-size: 75px;"">+</div>","null","","",""
"","","","","","image-keyboard-response","154","2.0.0","431772","p309nparx8z","3769","stimuli/33_150_R.jpg","j","response","j","true"
"","","","","","html-keyboard-response","155","2.0.0","432274","p309nparx8z","null","<p style=""border: 5px solid green;"">Correct!</p>","null","","",""
"","","","","","html-keyboard-response","156","2.0.0","433277","p309nparx8z","null","<div style=""font-size: 75px;"">+</div>","null","","",""
"","","","","","image-keyboard-response","157","2.0.0","440318","p309nparx8z","7040","stimuli/1_100_R.jpg","j","response","j","true"
"","","","","","html-keyboard-response","158","2.0.0","440820","p309nparx8z","null","<p style=""border: 5px solid green;"">Correct!</p>","null","","",""
"","","","","","html-keyboard-response","159","2.0.0","441823","p309nparx8z","null","<div style=""font-size: 75px;"">+</div>","null","","",""
"","","","","","image-keyboard-response","160","2.0.0","443755","p309nparx8z","1930","stimuli/44_0_R.jpg","j","response","j","true"
"","","","","","html-keyboard-response","161","2.0.0","444257","p309nparx8z","null","<p style=""border: 5px solid green;"">Correct!</p>","null","","",""
"","","","","","html-keyboard-response","162","2.0.0","445258","p309nparx8z","null","<div style=""font-size: 75px;"">+</div>","null","","",""
"","","","","","image-keyboard-response","163","2.0.0","447619","p309nparx8z","2360","stimuli/4_50.jpg","f","response","f","true"
"","","","","","html-keyboard-response","164","2.0.0","448121","p309nparx8z","null","<p style=""border: 5px solid green;"">Correct!</p>","null","","",""
"","","","","","html-keyboard-response","165","2.0.0","449124","p309nparx8z","null","<div style=""font-size: 75px;"">+</div>","null","","",""
"","","","","","image-keyboard-response","166","2.0.0","451492","p309nparx8z","2366","stimuli/10_100_R.jpg","j","response","j","true"
"","","","","","html-keyboard-response","167","2.0.0","451994","p309nparx8z","null","<p style=""border: 5px solid green;"">Correct!</p>","null","","",""
"","","","","","html-keyboard-response","168","2.0.0","452997","p309nparx8z","null","<div style=""font-size: 75px;"">+</div>","null","","",""
"","","","","","image-keyboard-response","169","2.0.0","456243","p309nparx8z","3244","stimuli/4_150.jpg","f","response","f","true"
"","","","","","html-keyboard-response","170","2.0.0","456744","p309nparx8z","null","<p style=""border: 5px solid green;"">Correct!</p>","null","","",""
"","","","","","html-keyboard-response","171","2.0.0","457747","p309nparx8z","null","<div style=""font-size: 75px;"">+</div>","null","","",""
"","","","","","image-keyboard-response","172","2.0.0","463300","p309nparx8z","5551","stimuli/2_0_R.jpg","j","response","j","true"
"","","","","","html-keyboard-response","173","2.0.0","463802","p309nparx8z","null","<p style=""border: 5px solid green;"">Correct!</p>","null","","",""
"","","","","","html-keyboard-response","174","2.0.0","464805","p309nparx8z","null","<div style=""font-size: 75px;"">+</div>","null","","",""
"","","","","","image-keyboard-response","175","2.0.0","466722","p309nparx8z","1915","stimuli/37_0.jpg","f","response","f","true"
"","","","","","html-keyboard-response","176","2.0.0","467224","p309nparx8z","null","<p style=""border: 5px solid green;"">Correct!</p>","null","","",""
"","","","","","html-keyboard-response","177","2.0.0","468227","p309nparx8z","null","<div style=""font-size: 75px;"">+</div>","null","","",""
"","","","","","image-keyboard-response","178","2.0.0","471933","p309nparx8z","3704","stimuli/16_50.jpg","f","response","f","true"
"","","","","","html-keyboard-response","179","2.0.0","472435","p309nparx8z","null","<p style=""border: 5px solid green;"">Correct!</p>","null","","",""
"","","","","","html-keyboard-response","180","2.0.0","473437","p309nparx8z","null","<div style=""font-size: 75px;"">+</div>","null","","",""
"","","","","","image-keyboard-response","181","2.0.0","477642","p309nparx8z","4204","stimuli/10_100.jpg","f","response","f","true"
"","","","","","html-keyboard-response","182","2.0.0","478144","p309nparx8z","null","<p style=""border: 5px solid green;"">Correct!</p>","null","","",""
"","","","","","html-keyboard-response","183","2.0.0","479145","p309nparx8z","null","<div style=""font-size: 75px;"">+</div>","null","","",""
"","","","","","image-keyboard-response","184","2.0.0","481042","p309nparx8z","1895","stimuli/13_100_R.jpg","j","response","j","true"
"","","","","","html-keyboard-response","185","2.0.0","481545","p309nparx8z","null","<p style=""border: 5px solid green;"">Correct!</p>","null","","",""
"","","","","","html-keyboard-response","186","2.0.0","482546","p309nparx8z","null","<div style=""font-size: 75px;"">+</div>","null","","",""
"","","","","","image-keyboard-response","187","2.0.0","484813","p309nparx8z","2265","stimuli/18_0_R.jpg","j","response","j","true"
"","","","","","html-keyboard-response","188","2.0.0","485315","p309nparx8z","null","<p style=""border: 5px solid green;"">Correct!</p>","null","","",""
"","","","","","html-keyboard-response","189","2.0.0","486318","p309nparx8z","null","<div style=""font-size: 75px;"">+</div>","null","","",""
"","","","","","image-keyboard-response","190","2.0.0","490594","p309nparx8z","4275","stimuli/32_50.jpg","f","response","f","true"
"","","","","","html-keyboard-response","191","2.0.0","491096","p309nparx8z","null","<p style=""border: 5px solid green;"">Correct!</p>","null","","",""
"","","","","","html-keyboard-response","192","2.0.0","492099","p309nparx8z","null","<div style=""font-size: 75px;"">+</div>","null","","",""
"","","","","","image-keyboard-response","193","2.0.0","496586","p309nparx8z","4485","stimuli/18_100_R.jpg","j","response","j","true"
"","","","","","html-keyboard-response","194","2.0.0","497087","p309nparx8z","null","<p style=""border: 5px solid green;"">Correct!</p>","null","","",""
"","","","","","html-keyboard-response","195","2.0.0","498090","p309nparx8z","null","<div style=""font-size: 75px;"">+</div>","null","","",""
"","","","","","image-keyboard-response","196","2.0.0","501155","p309nparx8z","3063","stimuli/45_50.jpg","f","response","f","true"
"","","","","","html-keyboard-response","197","2.0.0","501656","p309nparx8z","null","<p style=""border: 5px solid green;"">Correct!</p>","null","","",""
"","","","","","html-keyboard-response","198","2.0.0","502659","p309nparx8z","null","<div style=""font-size: 75px;"">+</div>","null","","",""
"","","","","","image-keyboard-response","199","2.0.0","506937","p309nparx8z","4277","stimuli/48_50_R.jpg","j","response","j","true"
"","","","","","html-keyboard-response","200","2.0.0","507440","p309nparx8z","null","<p style=""border: 5px solid green;"">Correct!</p>","null","","",""
"","","","","","html-keyboard-response","201","2.0.0","508443","p309nparx8z","null","<div style=""font-size: 75px;"">+</div>","null","","",""
"","","","","","image-keyboard-response","202","2.0.0","511412","p309nparx8z","2968","stimuli/5_0_R.jpg","j","response","j","true"
"","","","","","html-keyboard-response","203","2.0.0","511915","p309nparx8z","null","<p style=""border: 5px solid green;"">Correct!</p>","null","","",""
"","","","","","html-keyboard-response","204","2.0.0","512917","p309nparx8z","null","<div style=""font-size: 75px;"">+</div>","null","","",""
"","","","","","image-keyboard-response","205","2.0.0","515073","p309nparx8z","2154","stimuli/48_0.jpg","f","response","f","true"
"","","","","","html-keyboard-response","206","2.0.0","515575","p309nparx8z","null","<p style=""border: 5px solid green;"">Correct!</p>","null","","",""
"","","","","","html-keyboard-response","207","2.0.0","516578","p309nparx8z","null","<div style=""font-size: 75px;"">+</div>","null","","",""
"","","","","","image-keyboard-response","208","2.0.0","518649","p309nparx8z","2069","stimuli/46_100_R.jpg","j","response","j","true"
"","","","","","html-keyboard-response","209","2.0.0","519151","p309nparx8z","null","<p style=""border: 5px solid green;"">Correct!</p>","null","","",""
"","","","","","html-keyboard-response","210","2.0.0","520154","p309nparx8z","null","<div style=""font-size: 75px;"">+</div>","null","","",""
"","","","","","image-keyboard-response","211","2.0.0","522530","p309nparx8z","2375","stimuli/28_50.jpg","f","response","f","true"
"","","","","","html-keyboard-response","212","2.0.0","523032","p309nparx8z","null","<p style=""border: 5px solid green;"">Correct!</p>","null","","",""
"","","","","","html-keyboard-response","213","2.0.0","524034","p309nparx8z","null","<div style=""font-size: 75px;"">+</div>","null","","",""
"","","","","","image-keyboard-response","214","2.0.0","526555","p309nparx8z","2520","stimuli/21_50.jpg","f","response","f","true"
"","","","","","html-keyboard-response","215","2.0.0","527057","p309nparx8z","null","<p style=""border: 5px solid green;"">Correct!</p>","null","","",""
"","","","","","html-keyboard-response","216","2.0.0","528058","p309nparx8z","null","<div style=""font-size: 75px;"">+</div>","null","","",""
"","","","","","image-keyboard-response","217","2.0.0","530681","p309nparx8z","2621","stimuli/42_50.jpg","f","response","f","true"
"","","","","","html-keyboard-response","218","2.0.0","531183","p309nparx8z","null","<p style=""border: 5px solid green;"">Correct!</p>","null","","",""
"","","","","","html-keyboard-response","219","2.0.0","532186","p309nparx8z","null","<div style=""font-size: 75px;"">+</div>","null","","",""
"","","","","","image-keyboard-response","220","2.0.0","535529","p309nparx8z","3342","stimuli/36_100_R.jpg","j","response","j","true"
"","","","","","html-keyboard-response","221","2.0.0","536031","p309nparx8z","null","<p style=""border: 5px solid green;"">Correct!</p>","null","","",""
"","","","","","html-keyboard-response","222","2.0.0","537033","p309nparx8z","null","<div style=""font-size: 75px;"">+</div>","null","","",""
"","","","","","image-keyboard-response","223","2.0.0","543616","p309nparx8z","6582","stimuli/9_100.jpg","f","response","f","true"
"","","","","","html-keyboard-response","224","2.0.0","544119","p309nparx8z","null","<p style=""border: 5px solid green;"">Correct!</p>","null","","",""
"","","","","","html-keyboard-response","225","2.0.0","545120","p309nparx8z","null","<div style=""font-size: 75px;"">+</div>","null","","",""
"","","","","","image-keyboard-response","226","2.0.0","551628","p309nparx8z","6505","stimuli/29_100.jpg","f","response","f","true"
"","","","","","html-keyboard-response","227","2.0.0","552130","p309nparx8z","null","<p style=""border: 5px solid green;"">Correct!</p>","null","","",""
"","","","","","html-keyboard-response","228","2.0.0","553132","p309nparx8z","null","<div style=""font-size: 75px;"">+</div>","null","","",""
"","","","","","image-keyboard-response","229","2.0.0","560641","p309nparx8z","7508","stimuli/34_100.jpg","f","response","f","true"
"","","","","","html-keyboard-response","230","2.0.0","561143","p309nparx8z","null","<p style=""border: 5px solid green;"">Correct!</p>","null","","",""
"","","","","","html-keyboard-response","231","2.0.0","562145","p309nparx8z","null","<div style=""font-size: 75px;"">+</div>","null","","",""
"","","","","","image-keyboard-response","232","2.0.0","566120","p309nparx8z","3973","stimuli/31_50_R.jpg","j","response","j","true"
"","","","","","html-keyboard-response","233","2.0.0","566622","p309nparx8z","null","<p style=""border: 5px solid green;"">Correct!</p>","null","","",""
"","","","","","html-keyboard-response","234","2.0.0","567624","p309nparx8z","null","<div style=""font-size: 75px;"">+</div>","null","","",""
"","","","","","image-keyboard-response","235","2.0.0","569432","p309nparx8z","1807","stimuli/7_0.jpg","f","response","f","true"
"","","","","","html-keyboard-response","236","2.0.0","569935","p309nparx8z","null","<p style=""border: 5px solid green;"">Correct!</p>","null","","",""
"","","","","","html-keyboard-response","237","2.0.0","570937","p309nparx8z","null","<div style=""font-size: 75px;"">+</div>","null","","",""
"","","","","","image-keyboard-response","238","2.0.0","574679","p309nparx8z","3741","stimuli/4_50_R.jpg","j","response","j","true"
"","","","","","html-keyboard-response","239","2.0.0","575181","p309nparx8z","null","<p style=""border: 5px solid green;"">Correct!</p>","null","","",""
"","","","","","html-keyboard-response","240","2.0.0","576184","p309nparx8z","null","<div style=""font-size: 75px;"">+</div>","null","","",""
"","","","","","image-keyboard-response","241","2.0.0","578107","p309nparx8z","1921","stimuli/34_50_R.jpg","j","response","j","true"
"","","","","","html-keyboard-response","242","2.0.0","578608","p309nparx8z","null","<p style=""border: 5px solid green;"">Correct!</p>","null","","",""
"","","","","","html-keyboard-response","243","2.0.0","579610","p309nparx8z","null","<div style=""font-size: 75px;"">+</div>","null","","",""
"","","","","","image-keyboard-response","244","2.0.0","583248","p309nparx8z","3636","stimuli/23_150.jpg","f","response","f","true"
"","","","","","html-keyboard-response","245","2.0.0","583751","p309nparx8z","null","<p style=""border: 5px solid green;"">Correct!</p>","null","","",""
"","","","","","html-keyboard-response","246","2.0.0","584753","p309nparx8z","null","<div style=""font-size: 75px;"">+</div>","null","","",""
"","","","","","image-keyboard-response","247","2.0.0","587399","p309nparx8z","2644","stimuli/1_50_R.jpg","j","response","j","true"
"","","","","","html-keyboard-response","248","2.0.0","587901","p309nparx8z","null","<p style=""border: 5px solid green;"">Correct!</p>","null","","",""
"","","","","","html-keyboard-response","249","2.0.0","588903","p309nparx8z","null","<div style=""font-size: 75px;"">+</div>","null","","",""
"","","","","","image-keyboard-response","250","2.0.0","593866","p309nparx8z","4961","stimuli/39_150_R.jpg","j","response","j","true"
"","","","","","html-keyboard-response","251","2.0.0","594368","p309nparx8z","null","<p style=""border: 5px solid green;"">Correct!</p>","null","","",""
"","","","","","html-keyboard-response","252","2.0.0","595371","p309nparx8z","null","<div style=""font-size: 75px;"">+</div>","null","","",""
"","","","","","image-keyboard-response","253","2.0.0","597335","p309nparx8z","1963","stimuli/16_100.jpg","f","response","f","true"
"","","","","","html-keyboard-response","254","2.0.0","597837","p309nparx8z","null","<p style=""border: 5px solid green;"">Correct!</p>","null","","",""
"","","","","","html-keyboard-response","255","2.0.0","598840","p309nparx8z","null","<div style=""font-size: 75px;"">+</div>","null","","",""
"","","","","","image-keyboard-response","256","2.0.0","601631","p309nparx8z","2790","stimuli/27_150_R.jpg","j","response","j","true"
"","","","","","html-keyboard-response","257","2.0.0","602134","p309nparx8z","null","<p style=""border: 5px solid green;"">Correct!</p>","null","","",""
"","","","","","html-keyboard-response","258","2.0.0","603137","p309nparx8z","null","<div style=""font-size: 75px;"">+</div>","null","","",""
"","","","","","image-keyboard-response","259","2.0.0","607338","p309nparx8z","4200","stimuli/11_100_R.jpg","j","response","j","true"
"","","","","","html-keyboard-response","260","2.0.0","607840","p309nparx8z","null","<p style=""border: 5px solid green;"">Correct!</p>","null","","",""
"","","","","","html-keyboard-response","261","2.0.0","608843","p309nparx8z","null","<div style=""font-size: 75px;"">+</div>","null","","",""
"","","","","","image-keyboard-response","262","2.0.0","611511","p309nparx8z","2667","stimuli/24_100.jpg","f","response","f","true"
"","","","","","html-keyboard-response","263","2.0.0","612014","p309nparx8z","null","<p style=""border: 5px solid green;"">Correct!</p>","null","","",""
"","","","","","html-keyboard-response","264","2.0.0","613016","p309nparx8z","null","<div style=""font-size: 75px;"">+</div>","null","","",""
"","","","","","image-keyboard-response","265","2.0.0","615929","p309nparx8z","2911","stimuli/21_0.jpg","f","response","f","true"
"","","","","","html-keyboard-response","266","2.0.0","616431","p309nparx8z","null","<p style=""border: 5px solid green;"">Correct!</p>","null","","",""
"","","","","","html-keyboard-response","267","2.0.0","617434","p309nparx8z","null","<div style=""font-size: 75px;"">+</div>","null","","",""
"","","","","","image-keyboard-response","268","2.0.0","620047","p309nparx8z","2611","stimuli/17_50.jpg","f","response","f","true"
"","","","","","html-keyboard-response","269","2.0.0","620549","p309nparx8z","null","<p style=""border: 5px solid green;"">Correct!</p>","null","","",""
"","","","","","html-keyboard-response","270","2.0.0","621553","p309nparx8z","null","<div style=""font-size: 75px;"">+</div>","null","","",""
"","","","","","image-keyboard-response","271","2.0.0","622985","p309nparx8z","1431","stimuli/39_0.jpg","f","response","f","true"
"","","","","","html-keyboard-response","272","2.0.0","623488","p309nparx8z","null","<p style=""border: 5px solid green;"">Correct!</p>","null","","",""
"","","","","","html-keyboard-response","273","2.0.0","624489","p309nparx8z","null","<div style=""font-size: 75px;"">+</div>","null","","",""
"","","","","","image-keyboard-response","274","2.0.0","630575","p309nparx8z","6084","stimuli/27_150.jpg","f","response","f","true"
"","","","","","html-keyboard-response","275","2.0.0","631077","p309nparx8z","null","<p style=""border: 5px solid green;"">Correct!</p>","null","","",""
"","","","","","html-keyboard-response","276","2.0.0","632080","p309nparx8z","null","<div style=""font-size: 75px;"">+</div>","null","","",""
"","","","","","image-keyboard-response","277","2.0.0","637247","p309nparx8z","5165","stimuli/44_150_R.jpg","j","response","j","true"
"","","","","","html-keyboard-response","278","2.0.0","637748","p309nparx8z","null","<p style=""border: 5px solid green;"">Correct!</p>","null","","",""
"","","","","","html-keyboard-response","279","2.0.0","638751","p309nparx8z","null","<div style=""font-size: 75px;"">+</div>","null","","",""
"","","","","","image-keyboard-response","280","2.0.0","642022","p309nparx8z","3269","stimuli/10_150.jpg","f","response","f","true"
"","","","","","html-keyboard-response","281","2.0.0","642524","p309nparx8z","null","<p style=""border: 5px solid green;"">Correct!</p>","null","","",""
"","","","","","html-keyboard-response","282","2.0.0","643526","p309nparx8z","null","<div style=""font-size: 75px;"">+</div>","null","","",""
"","","","","","image-keyboard-response","283","2.0.0","646694","p309nparx8z","3166","stimuli/37_0_R.jpg","j","response","j","true"
"","","","","","html-keyboard-response","284","2.0.0","647195","p309nparx8z","null","<p style=""border: 5px solid green;"">Correct!</p>","null","","",""
"","","","","","html-keyboard-response","285","2.0.0","648198","p309nparx8z","null","<div style=""font-size: 75px;"">+</div>","null","","",""
"","","","","","image-keyboard-response","286","2.0.0","650464","p309nparx8z","2264","stimuli/24_100_R.jpg","j","response","j","true"
"","","","","","html-keyboard-response","287","2.0.0","650966","p309nparx8z","null","<p style=""border: 5px solid green;"">Correct!</p>","null","","",""
"","","","","","html-keyboard-response","288","2.0.0","651968","p309nparx8z","null","<div style=""font-size: 75px;"">+</div>","null","","",""
"","","","","","image-keyboard-response","289","2.0.0","656829","p309nparx8z","4860","stimuli/48_100.jpg","f","response","f","true"
"","","","","","html-keyboard-response","290","2.0.0","657331","p309nparx8z","null","<p style=""border: 5px solid green;"">Correct!</p>","null","","",""
"","","","","","html-keyboard-response","291","2.0.0","658334","p309nparx8z","null","<div style=""font-size: 75px;"">+</div>","null","","",""
"","","","","","image-keyboard-response","292","2.0.0","665232","p309nparx8z","6896","stimuli/30_150.jpg","f","response","f","true"
"","","","","","html-keyboard-response","293","2.0.0","665734","p309nparx8z","null","<p style=""border: 5px solid green;"">Correct!</p>","null","","",""
"","","","","","html-keyboard-response","294","2.0.0","669830","p309nparx8z","4094","<p>Thank you for participating!</p><p>Please press space to answer our survey.</p>"," ","","",""
"","","","","","survey-html-form","295","null","816299","p309nparx8z","146469","","{""response_1"":""Moderately clear and lively"",""response_2"":""Clear and lively"",""response_3"":""Dim and vague; flat"",""response_4"":""Clear and lively"",""response_5"":""Moderately clear and lively"",""response_6"":""Clear and lively"",""response_7"":""Moderately clear and lively"",""response_8"":""Dim and vague; flat"",""response_9"":""Moderately clear and lively"",""response_10"":""Moderately clear and lively"",""response_11"":""Moderately clear and lively"",""response_12"":""Moderately clear and lively"",""response_13"":""Moderately clear and lively"",""response_14"":""Dim and vague; flat"",""response_15"":""Clear and lively"",""response_16"":""Moderately clear and lively""}","","",""
"","","","","","survey-html-form","296","null","936485","p309nparx8z","120185","","{""age"":""25"",""gender"":""female"",""education"":""some-college"",""handedness"":""right"",""vision"":""corrected"",""technical_difficulties"":""None, I think there was a typo on one the survey questions though. the one about the customer service one. "",""knowledge_check"":""I think this experiment tests how our mind envisions or perceives images without the help of a physical object. ""}","","",""
