"success","timeout","failed_images","failed_audio","failed_video","trial_type","trial_index","plugin_version","time_elapsed","random_id","rt","stimulus","response","task","correct_response","correct"
"true","false","[]","[]","[]","preload","0","2.0.0","1132","p3n3sb3ybyu","","","","","",""
"true","","","","","fullscreen","1","2.0.0","58660","p3n3sb3ybyu","56525","","","","",""
"","","","","","html-keyboard-response","2","2.0.0","59062","p3n3sb3ybyu","401","Welcome to the experiment. Press any key to begin.","d","","",""
"","","","","","survey-text","3","2.0.0","61514","p3n3sb3ybyu","2450","","{""participant_id"":""A17689315""}","","",""
"","","","","","html-keyboard-response","4","2.0.0","64817","p3n3sb3ybyu","3301","
        <p>Welcome to the experiment.</p>
        <p>In this task, you will see pairs of images.</p>
        <p>Your job is to determine whether the image on the right is a rotated version of the image on the left.</p>
        <p>Press the <strong>F</strong> key if the images are the same.</p>
        <p>Press the <strong>J</strong> key if the images are different.</p>
        <p>Press any key to begin.</p>
    ","k","","",""
"","","","","","html-keyboard-response","5","2.0.0","65828","p3n3sb3ybyu","null","<div style=""font-size: 75px;"">+</div>","null","","",""
"","","","","","image-keyboard-response","6","2.0.0","66842","p3n3sb3ybyu","1013","stimuli/23_50_R.jpg","f","response","j","false"
"","","","","","html-keyboard-response","7","2.0.0","67350","p3n3sb3ybyu","null","<p style=""border: 5px solid red;"">Incorrect.</p>","null","","",""
"","","","","","html-keyboard-response","8","2.0.0","68359","p3n3sb3ybyu","null","<div style=""font-size: 75px;"">+</div>","null","","",""
"","","","","","image-keyboard-response","9","2.0.0","72167","p3n3sb3ybyu","3808","stimuli/11_150.jpg","f","response","f","true"
"","","","","","html-keyboard-response","10","2.0.0","72674","p3n3sb3ybyu","null","<p style=""border: 5px solid green;"">Correct!</p>","null","","",""
"","","","","","html-keyboard-response","11","2.0.0","73686","p3n3sb3ybyu","null","<div style=""font-size: 75px;"">+</div>","null","","",""
"","","","","","image-keyboard-response","12","2.0.0","74571","p3n3sb3ybyu","883","stimuli/32_150_R.jpg","j","response","j","true"
"","","","","","html-keyboard-response","13","2.0.0","75073","p3n3sb3ybyu","null","<p style=""border: 5px solid green;"">Correct!</p>","null","","",""
"","","","","","html-keyboard-response","14","2.0.0","76086","p3n3sb3ybyu","null","<div style=""font-size: 75px;"">+</div>","null","","",""
"","","","","","image-keyboard-response","15","2.0.0","77332","p3n3sb3ybyu","1244","stimuli/23_100_R.jpg","f","response","j","false"
"","","","","","html-keyboard-response","16","2.0.0","77834","p3n3sb3ybyu","null","<p style=""border: 5px solid red;"">Incorrect.</p>","null","","",""
"","","","","","html-keyboard-response","17","2.0.0","78849","p3n3sb3ybyu","null","<div style=""font-size: 75px;"">+</div>","null","","",""
"","","","","","image-keyboard-response","18","2.0.0","79030","p3n3sb3ybyu","179","stimuli/37_150_R.jpg","j","response","j","true"
"","","","","","html-keyboard-response","19","2.0.0","79535","p3n3sb3ybyu","null","<p style=""border: 5px solid green;"">Correct!</p>","null","","",""
"","","","","","html-keyboard-response","20","2.0.0","80547","p3n3sb3ybyu","null","<div style=""font-size: 75px;"">+</div>","null","","",""
"","","","","","image-keyboard-response","21","2.0.0","80740","p3n3sb3ybyu","191","stimuli/36_150.jpg","j","response","f","false"
"","","","","","html-keyboard-response","22","2.0.0","81247","p3n3sb3ybyu","null","<p style=""border: 5px solid red;"">Incorrect.</p>","null","","",""
"","","","","","html-keyboard-response","23","2.0.0","82259","p3n3sb3ybyu","null","<div style=""font-size: 75px;"">+</div>","null","","",""
"","","","","","image-keyboard-response","24","2.0.0","82631","p3n3sb3ybyu","371","stimuli/14_150.jpg","j","response","f","false"
"","","","","","html-keyboard-response","25","2.0.0","83147","p3n3sb3ybyu","null","<p style=""border: 5px solid red;"">Incorrect.</p>","null","","",""
"","","","","","html-keyboard-response","26","2.0.0","84156","p3n3sb3ybyu","null","<div style=""font-size: 75px;"">+</div>","null","","",""
"","","","","","image-keyboard-response","27","2.0.0","85785","p3n3sb3ybyu","1628","stimuli/2_0.jpg","f","response","f","true"
"","","","","","html-keyboard-response","28","2.0.0","86293","p3n3sb3ybyu","null","<p style=""border: 5px solid green;"">Correct!</p>","null","","",""
"","","","","","html-keyboard-response","29","2.0.0","87305","p3n3sb3ybyu","null","<div style=""font-size: 75px;"">+</div>","null","","",""
"","","","","","image-keyboard-response","30","2.0.0","88841","p3n3sb3ybyu","1535","stimuli/29_100_R.jpg","j","response","j","true"
"","","","","","html-keyboard-response","31","2.0.0","89346","p3n3sb3ybyu","null","<p style=""border: 5px solid green;"">Correct!</p>","null","","",""
"","","","","","html-keyboard-response","32","2.0.0","90362","p3n3sb3ybyu","null","<div style=""font-size: 75px;"">+</div>","null","","",""
"","","","","","image-keyboard-response","33","2.0.0","92617","p3n3sb3ybyu","2254","stimuli/2_100.jpg","f","response","f","true"
"","","","","","html-keyboard-response","34","2.0.0","93131","p3n3sb3ybyu","null","<p style=""border: 5px solid green;"">Correct!</p>","null","","",""
"","","","","","html-keyboard-response","35","2.0.0","94145","p3n3sb3ybyu","null","<div style=""font-size: 75px;"">+</div>","null","","",""
"","","","","","image-keyboard-response","36","2.0.0","95552","p3n3sb3ybyu","1406","stimuli/24_50.jpg","f","response","f","true"
"","","","","","html-keyboard-response","37","2.0.0","96063","p3n3sb3ybyu","null","<p style=""border: 5px solid green;"">Correct!</p>","null","","",""
"","","","","","html-keyboard-response","38","2.0.0","97075","p3n3sb3ybyu","null","<div style=""font-size: 75px;"">+</div>","null","","",""
"","","","","","image-keyboard-response","39","2.0.0","98063","p3n3sb3ybyu","987","stimuli/8_100_R.jpg","f","response","j","false"
"","","","","","html-keyboard-response","40","2.0.0","98569","p3n3sb3ybyu","null","<p style=""border: 5px solid red;"">Incorrect.</p>","null","","",""
"","","","","","html-keyboard-response","41","2.0.0","99583","p3n3sb3ybyu","null","<div style=""font-size: 75px;"">+</div>","null","","",""
"","","","","","image-keyboard-response","42","2.0.0","100306","p3n3sb3ybyu","722","stimuli/40_50_R.jpg","f","response","j","false"
"","","","","","html-keyboard-response","43","2.0.0","100811","p3n3sb3ybyu","null","<p style=""border: 5px solid red;"">Incorrect.</p>","null","","",""
"","","","","","html-keyboard-response","44","2.0.0","101827","p3n3sb3ybyu","null","<div style=""font-size: 75px;"">+</div>","null","","",""
"","","","","","image-keyboard-response","45","2.0.0","104269","p3n3sb3ybyu","2441","stimuli/18_50_R.jpg","f","response","j","false"
"","","","","","html-keyboard-response","46","2.0.0","104784","p3n3sb3ybyu","null","<p style=""border: 5px solid red;"">Incorrect.</p>","null","","",""
"","","","","","html-keyboard-response","47","2.0.0","105797","p3n3sb3ybyu","null","<div style=""font-size: 75px;"">+</div>","null","","",""
"","","","","","image-keyboard-response","48","2.0.0","106753","p3n3sb3ybyu","955","stimuli/21_100.jpg","j","response","f","false"
"","","","","","html-keyboard-response","49","2.0.0","107258","p3n3sb3ybyu","null","<p style=""border: 5px solid red;"">Incorrect.</p>","null","","",""
"","","","","","html-keyboard-response","50","2.0.0","108270","p3n3sb3ybyu","null","<div style=""font-size: 75px;"">+</div>","null","","",""
"","","","","","image-keyboard-response","51","2.0.0","109128","p3n3sb3ybyu","857","stimuli/32_100.jpg","j","response","f","false"
"","","","","","html-keyboard-response","52","2.0.0","109644","p3n3sb3ybyu","null","<p style=""border: 5px solid red;"">Incorrect.</p>","null","","",""
"","","","","","html-keyboard-response","53","2.0.0","110658","p3n3sb3ybyu","null","<div style=""font-size: 75px;"">+</div>","null","","",""
"","","","","","image-keyboard-response","54","2.0.0","112620","p3n3sb3ybyu","1960","stimuli/42_150_R.jpg","f","response","j","false"
"","","","","","html-keyboard-response","55","2.0.0","113121","p3n3sb3ybyu","null","<p style=""border: 5px solid red;"">Incorrect.</p>","null","","",""
"","","","","","html-keyboard-response","56","2.0.0","114137","p3n3sb3ybyu","null","<div style=""font-size: 75px;"">+</div>","null","","",""
"","","","","","image-keyboard-response","57","2.0.0","115459","p3n3sb3ybyu","1320","stimuli/45_0_R.jpg","f","response","j","false"
"","","","","","html-keyboard-response","58","2.0.0","115965","p3n3sb3ybyu","null","<p style=""border: 5px solid red;"">Incorrect.</p>","null","","",""
"","","","","","html-keyboard-response","59","2.0.0","116977","p3n3sb3ybyu","null","<div style=""font-size: 75px;"">+</div>","null","","",""
"","","","","","image-keyboard-response","60","2.0.0","117681","p3n3sb3ybyu","703","stimuli/11_100_R.jpg","f","response","j","false"
"","","","","","html-keyboard-response","61","2.0.0","118196","p3n3sb3ybyu","null","<p style=""border: 5px solid red;"">Incorrect.</p>","null","","",""
"","","","","","html-keyboard-response","62","2.0.0","119208","p3n3sb3ybyu","null","<div style=""font-size: 75px;"">+</div>","null","","",""
"","","","","","image-keyboard-response","63","2.0.0","120269","p3n3sb3ybyu","1060","stimuli/30_0.jpg","f","response","f","true"
"","","","","","html-keyboard-response","64","2.0.0","120772","p3n3sb3ybyu","null","<p style=""border: 5px solid green;"">Correct!</p>","null","","",""
"","","","","","html-keyboard-response","65","2.0.0","121783","p3n3sb3ybyu","null","<div style=""font-size: 75px;"">+</div>","null","","",""
"","","","","","image-keyboard-response","66","2.0.0","123308","p3n3sb3ybyu","1524","stimuli/16_50.jpg","j","response","f","false"
"","","","","","html-keyboard-response","67","2.0.0","123810","p3n3sb3ybyu","null","<p style=""border: 5px solid red;"">Incorrect.</p>","null","","",""
"","","","","","html-keyboard-response","68","2.0.0","124822","p3n3sb3ybyu","null","<div style=""font-size: 75px;"">+</div>","null","","",""
"","","","","","image-keyboard-response","69","2.0.0","125888","p3n3sb3ybyu","1065","stimuli/18_150_R.jpg","f","response","j","false"
"","","","","","html-keyboard-response","70","2.0.0","126393","p3n3sb3ybyu","null","<p style=""border: 5px solid red;"">Incorrect.</p>","null","","",""
"","","","","","html-keyboard-response","71","2.0.0","127408","p3n3sb3ybyu","null","<div style=""font-size: 75px;"">+</div>","null","","",""
"","","","","","image-keyboard-response","72","2.0.0","128103","p3n3sb3ybyu","694","stimuli/14_50.jpg","f","response","f","true"
"","","","","","html-keyboard-response","73","2.0.0","128608","p3n3sb3ybyu","null","<p style=""border: 5px solid green;"">Correct!</p>","null","","",""
"","","","","","html-keyboard-response","74","2.0.0","129620","p3n3sb3ybyu","null","<div style=""font-size: 75px;"">+</div>","null","","",""
"","","","","","image-keyboard-response","75","2.0.0","130696","p3n3sb3ybyu","1074","stimuli/42_150.jpg","j","response","f","false"
"","","","","","html-keyboard-response","76","2.0.0","131211","p3n3sb3ybyu","null","<p style=""border: 5px solid red;"">Incorrect.</p>","null","","",""
"","","","","","html-keyboard-response","77","2.0.0","132225","p3n3sb3ybyu","null","<div style=""font-size: 75px;"">+</div>","null","","",""
"","","","","","image-keyboard-response","78","2.0.0","132720","p3n3sb3ybyu","494","stimuli/25_100_R.jpg","f","response","j","false"
"","","","","","html-keyboard-response","79","2.0.0","133221","p3n3sb3ybyu","null","<p style=""border: 5px solid red;"">Incorrect.</p>","null","","",""
"","","","","","html-keyboard-response","80","2.0.0","134235","p3n3sb3ybyu","null","<div style=""font-size: 75px;"">+</div>","null","","",""
"","","","","","image-keyboard-response","81","2.0.0","135043","p3n3sb3ybyu","806","stimuli/36_100_R.jpg","f","response","j","false"
"","","","","","html-keyboard-response","82","2.0.0","135555","p3n3sb3ybyu","null","<p style=""border: 5px solid red;"">Incorrect.</p>","null","","",""
"","","","","","html-keyboard-response","83","2.0.0","136568","p3n3sb3ybyu","null","<div style=""font-size: 75px;"">+</div>","null","","",""
"","","","","","image-keyboard-response","84","2.0.0","137351","p3n3sb3ybyu","782","stimuli/5_0.jpg","f","response","f","true"
"","","","","","html-keyboard-response","85","2.0.0","137856","p3n3sb3ybyu","null","<p style=""border: 5px solid green;"">Correct!</p>","null","","",""
"","","","","","html-keyboard-response","86","2.0.0","138866","p3n3sb3ybyu","null","<div style=""font-size: 75px;"">+</div>","null","","",""
"","","","","","image-keyboard-response","87","2.0.0","139665","p3n3sb3ybyu","797","stimuli/43_50_R.jpg","j","response","j","true"
"","","","","","html-keyboard-response","88","2.0.0","140171","p3n3sb3ybyu","null","<p style=""border: 5px solid green;"">Correct!</p>","null","","",""
"","","","","","html-keyboard-response","89","2.0.0","141184","p3n3sb3ybyu","null","<div style=""font-size: 75px;"">+</div>","null","","",""
"","","","","","image-keyboard-response","90","2.0.0","142182","p3n3sb3ybyu","997","stimuli/6_150.jpg","f","response","f","true"
"","","","","","html-keyboard-response","91","2.0.0","142696","p3n3sb3ybyu","null","<p style=""border: 5px solid green;"">Correct!</p>","null","","",""
"","","","","","html-keyboard-response","92","2.0.0","143709","p3n3sb3ybyu","null","<div style=""font-size: 75px;"">+</div>","null","","",""
"","","","","","image-keyboard-response","93","2.0.0","144640","p3n3sb3ybyu","929","stimuli/4_100_R.jpg","j","response","j","true"
"","","","","","html-keyboard-response","94","2.0.0","145145","p3n3sb3ybyu","null","<p style=""border: 5px solid green;"">Correct!</p>","null","","",""
"","","","","","html-keyboard-response","95","2.0.0","146159","p3n3sb3ybyu","null","<div style=""font-size: 75px;"">+</div>","null","","",""
"","","","","","image-keyboard-response","96","2.0.0","147042","p3n3sb3ybyu","882","stimuli/34_50_R.jpg","f","response","j","false"
"","","","","","html-keyboard-response","97","2.0.0","147548","p3n3sb3ybyu","null","<p style=""border: 5px solid red;"">Incorrect.</p>","null","","",""
"","","","","","html-keyboard-response","98","2.0.0","148551","p3n3sb3ybyu","null","<div style=""font-size: 75px;"">+</div>","null","","",""
"","","","","","image-keyboard-response","99","2.0.0","149136","p3n3sb3ybyu","584","stimuli/6_0.jpg","f","response","f","true"
"","","","","","html-keyboard-response","100","2.0.0","149646","p3n3sb3ybyu","null","<p style=""border: 5px solid green;"">Correct!</p>","null","","",""
"","","","","","html-keyboard-response","101","2.0.0","150662","p3n3sb3ybyu","null","<div style=""font-size: 75px;"">+</div>","null","","",""
"","","","","","image-keyboard-response","102","2.0.0","151319","p3n3sb3ybyu","656","stimuli/10_150_R.jpg","f","response","j","false"
"","","","","","html-keyboard-response","103","2.0.0","151830","p3n3sb3ybyu","null","<p style=""border: 5px solid red;"">Incorrect.</p>","null","","",""
"","","","","","html-keyboard-response","104","2.0.0","152844","p3n3sb3ybyu","null","<div style=""font-size: 75px;"">+</div>","null","","",""
"","","","","","image-keyboard-response","105","2.0.0","153564","p3n3sb3ybyu","719","stimuli/41_0_R.jpg","f","response","j","false"
"","","","","","html-keyboard-response","106","2.0.0","154077","p3n3sb3ybyu","null","<p style=""border: 5px solid red;"">Incorrect.</p>","null","","",""
"","","","","","html-keyboard-response","107","2.0.0","155090","p3n3sb3ybyu","null","<div style=""font-size: 75px;"">+</div>","null","","",""
"","","","","","image-keyboard-response","108","2.0.0","155899","p3n3sb3ybyu","808","stimuli/47_150.jpg","f","response","f","true"
"","","","","","html-keyboard-response","109","2.0.0","156415","p3n3sb3ybyu","null","<p style=""border: 5px solid green;"">Correct!</p>","null","","",""
"","","","","","html-keyboard-response","110","2.0.0","157427","p3n3sb3ybyu","null","<div style=""font-size: 75px;"">+</div>","null","","",""
"","","","","","image-keyboard-response","111","2.0.0","157845","p3n3sb3ybyu","417","stimuli/19_0_R.jpg","j","response","j","true"
"","","","","","html-keyboard-response","112","2.0.0","158349","p3n3sb3ybyu","null","<p style=""border: 5px solid green;"">Correct!</p>","null","","",""
"","","","","","html-keyboard-response","113","2.0.0","159364","p3n3sb3ybyu","null","<div style=""font-size: 75px;"">+</div>","null","","",""
"","","","","","image-keyboard-response","114","2.0.0","160159","p3n3sb3ybyu","794","stimuli/45_150.jpg","j","response","f","false"
"","","","","","html-keyboard-response","115","2.0.0","160673","p3n3sb3ybyu","null","<p style=""border: 5px solid red;"">Incorrect.</p>","null","","",""
"","","","","","html-keyboard-response","116","2.0.0","161685","p3n3sb3ybyu","null","<div style=""font-size: 75px;"">+</div>","null","","",""
"","","","","","image-keyboard-response","117","2.0.0","162951","p3n3sb3ybyu","1264","stimuli/20_100.jpg","f","response","f","true"
"","","","","","html-keyboard-response","118","2.0.0","163463","p3n3sb3ybyu","null","<p style=""border: 5px solid green;"">Correct!</p>","null","","",""
"","","","","","html-keyboard-response","119","2.0.0","164478","p3n3sb3ybyu","null","<div style=""font-size: 75px;"">+</div>","null","","",""
"","","","","","image-keyboard-response","120","2.0.0","165386","p3n3sb3ybyu","906","stimuli/43_0_R.jpg","j","response","j","true"
"","","","","","html-keyboard-response","121","2.0.0","165892","p3n3sb3ybyu","null","<p style=""border: 5px solid green;"">Correct!</p>","null","","",""
"","","","","","html-keyboard-response","122","2.0.0","166903","p3n3sb3ybyu","null","<div style=""font-size: 75px;"">+</div>","null","","",""
"","","","","","image-keyboard-response","123","2.0.0","167561","p3n3sb3ybyu","658","stimuli/40_100_R.jpg","j","response","j","true"
"","","","","","html-keyboard-response","124","2.0.0","168067","p3n3sb3ybyu","null","<p style=""border: 5px solid green;"">Correct!</p>","null","","",""
"","","","","","html-keyboard-response","125","2.0.0","169080","p3n3sb3ybyu","null","<div style=""font-size: 75px;"">+</div>","null","","",""
"","","","","","image-keyboard-response","126","2.0.0","169930","p3n3sb3ybyu","849","stimuli/9_0.jpg","f","response","f","true"
"","","","","","html-keyboard-response","127","2.0.0","170437","p3n3sb3ybyu","null","<p style=""border: 5px solid green;"">Correct!</p>","null","","",""
"","","","","","html-keyboard-response","128","2.0.0","171452","p3n3sb3ybyu","null","<div style=""font-size: 75px;"">+</div>","null","","",""
"","","","","","image-keyboard-response","129","2.0.0","172957","p3n3sb3ybyu","1504","stimuli/22_0_R.jpg","j","response","j","true"
"","","","","","html-keyboard-response","130","2.0.0","173460","p3n3sb3ybyu","null","<p style=""border: 5px solid green;"">Correct!</p>","null","","",""
"","","","","","html-keyboard-response","131","2.0.0","174474","p3n3sb3ybyu","null","<div style=""font-size: 75px;"">+</div>","null","","",""
"","","","","","image-keyboard-response","132","2.0.0","176762","p3n3sb3ybyu","2287","stimuli/38_50.jpg","f","response","f","true"
"","","","","","html-keyboard-response","133","2.0.0","177271","p3n3sb3ybyu","null","<p style=""border: 5px solid green;"">Correct!</p>","null","","",""
"","","","","","html-keyboard-response","134","2.0.0","178285","p3n3sb3ybyu","null","<div style=""font-size: 75px;"">+</div>","null","","",""
"","","","","","image-keyboard-response","135","2.0.0","179268","p3n3sb3ybyu","981","stimuli/11_150_R.jpg","j","response","j","true"
"","","","","","html-keyboard-response","136","2.0.0","179784","p3n3sb3ybyu","null","<p style=""border: 5px solid green;"">Correct!</p>","null","","",""
"","","","","","html-keyboard-response","137","2.0.0","180796","p3n3sb3ybyu","null","<div style=""font-size: 75px;"">+</div>","null","","",""
"","","","","","image-keyboard-response","138","2.0.0","181837","p3n3sb3ybyu","1040","stimuli/12_50_R.jpg","j","response","j","true"
"","","","","","html-keyboard-response","139","2.0.0","182341","p3n3sb3ybyu","null","<p style=""border: 5px solid green;"">Correct!</p>","null","","",""
"","","","","","html-keyboard-response","140","2.0.0","183353","p3n3sb3ybyu","null","<div style=""font-size: 75px;"">+</div>","null","","",""
"","","","","","image-keyboard-response","141","2.0.0","184219","p3n3sb3ybyu","865","stimuli/8_0.jpg","j","response","f","false"
"","","","","","html-keyboard-response","142","2.0.0","184725","p3n3sb3ybyu","null","<p style=""border: 5px solid red;"">Incorrect.</p>","null","","",""
"","","","","","html-keyboard-response","143","2.0.0","185738","p3n3sb3ybyu","null","<div style=""font-size: 75px;"">+</div>","null","","",""
"","","","","","image-keyboard-response","144","2.0.0","186690","p3n3sb3ybyu","951","stimuli/5_50_R.jpg","f","response","j","false"
"","","","","","html-keyboard-response","145","2.0.0","187205","p3n3sb3ybyu","null","<p style=""border: 5px solid red;"">Incorrect.</p>","null","","",""
"","","","","","html-keyboard-response","146","2.0.0","188222","p3n3sb3ybyu","null","<div style=""font-size: 75px;"">+</div>","null","","",""
"","","","","","image-keyboard-response","147","2.0.0","189063","p3n3sb3ybyu","841","stimuli/47_50.jpg","j","response","f","false"
"","","","","","html-keyboard-response","148","2.0.0","189567","p3n3sb3ybyu","null","<p style=""border: 5px solid red;"">Incorrect.</p>","null","","",""
"","","","","","html-keyboard-response","149","2.0.0","219570","p3n3sb3ybyu","null","<p> Take a break! Experiment continues in 30 seconds . </p>","null","","",""
"","","","","","html-keyboard-response","150","2.0.0","220580","p3n3sb3ybyu","null","<div style=""font-size: 75px;"">+</div>","null","","",""
"","","","","","image-keyboard-response","151","2.0.0","223541","p3n3sb3ybyu","2959","stimuli/9_50_R.jpg","j","response","j","true"
"","","","","","html-keyboard-response","152","2.0.0","224055","p3n3sb3ybyu","null","<p style=""border: 5px solid green;"">Correct!</p>","null","","",""
"","","","","","html-keyboard-response","153","2.0.0","225065","p3n3sb3ybyu","null","<div style=""font-size: 75px;"">+</div>","null","","",""
"","","","","","image-keyboard-response","154","2.0.0","226244","p3n3sb3ybyu","1178","stimuli/4_50.jpg","f","response","f","true"
"","","","","","html-keyboard-response","155","2.0.0","226745","p3n3sb3ybyu","null","<p style=""border: 5px solid green;"">Correct!</p>","null","","",""
"","","","","","html-keyboard-response","156","2.0.0","227757","p3n3sb3ybyu","null","<div style=""font-size: 75px;"">+</div>","null","","",""
"","","","","","image-keyboard-response","157","2.0.0","229037","p3n3sb3ybyu","1278","stimuli/10_150.jpg","f","response","f","true"
"","","","","","html-keyboard-response","158","2.0.0","229550","p3n3sb3ybyu","null","<p style=""border: 5px solid green;"">Correct!</p>","null","","",""
"","","","","","html-keyboard-response","159","2.0.0","230552","p3n3sb3ybyu","null","<div style=""font-size: 75px;"">+</div>","null","","",""
"","","","","","image-keyboard-response","160","2.0.0","231673","p3n3sb3ybyu","1120","stimuli/19_50_R.jpg","j","response","j","true"
"","","","","","html-keyboard-response","161","2.0.0","232187","p3n3sb3ybyu","null","<p style=""border: 5px solid green;"">Correct!</p>","null","","",""
"","","","","","html-keyboard-response","162","2.0.0","233199","p3n3sb3ybyu","null","<div style=""font-size: 75px;"">+</div>","null","","",""
"","","","","","image-keyboard-response","163","2.0.0","234036","p3n3sb3ybyu","837","stimuli/3_0_R.jpg","f","response","j","false"
"","","","","","html-keyboard-response","164","2.0.0","234538","p3n3sb3ybyu","null","<p style=""border: 5px solid red;"">Incorrect.</p>","null","","",""
"","","","","","html-keyboard-response","165","2.0.0","235550","p3n3sb3ybyu","null","<div style=""font-size: 75px;"">+</div>","null","","",""
"","","","","","image-keyboard-response","166","2.0.0","236175","p3n3sb3ybyu","624","stimuli/26_150_R.jpg","j","response","j","true"
"","","","","","html-keyboard-response","167","2.0.0","236684","p3n3sb3ybyu","null","<p style=""border: 5px solid green;"">Correct!</p>","null","","",""
"","","","","","html-keyboard-response","168","2.0.0","237699","p3n3sb3ybyu","null","<div style=""font-size: 75px;"">+</div>","null","","",""
"","","","","","image-keyboard-response","169","2.0.0","238354","p3n3sb3ybyu","654","stimuli/42_100.jpg","f","response","f","true"
"","","","","","html-keyboard-response","170","2.0.0","238867","p3n3sb3ybyu","null","<p style=""border: 5px solid green;"">Correct!</p>","null","","",""
"","","","","","html-keyboard-response","171","2.0.0","239879","p3n3sb3ybyu","null","<div style=""font-size: 75px;"">+</div>","null","","",""
"","","","","","image-keyboard-response","172","2.0.0","240475","p3n3sb3ybyu","595","stimuli/9_150_R.jpg","j","response","j","true"
"","","","","","html-keyboard-response","173","2.0.0","240985","p3n3sb3ybyu","null","<p style=""border: 5px solid green;"">Correct!</p>","null","","",""
"","","","","","html-keyboard-response","174","2.0.0","241999","p3n3sb3ybyu","null","<div style=""font-size: 75px;"">+</div>","null","","",""
"","","","","","image-keyboard-response","175","2.0.0","243096","p3n3sb3ybyu","1096","stimuli/11_0.jpg","f","response","f","true"
"","","","","","html-keyboard-response","176","2.0.0","243603","p3n3sb3ybyu","null","<p style=""border: 5px solid green;"">Correct!</p>","null","","",""
"","","","","","html-keyboard-response","177","2.0.0","244605","p3n3sb3ybyu","null","<div style=""font-size: 75px;"">+</div>","null","","",""
"","","","","","image-keyboard-response","178","2.0.0","245471","p3n3sb3ybyu","865","stimuli/13_50_R.jpg","j","response","j","true"
"","","","","","html-keyboard-response","179","2.0.0","245978","p3n3sb3ybyu","null","<p style=""border: 5px solid green;"">Correct!</p>","null","","",""
"","","","","","html-keyboard-response","180","2.0.0","246992","p3n3sb3ybyu","null","<div style=""font-size: 75px;"">+</div>","null","","",""
"","","","","","image-keyboard-response","181","2.0.0","247641","p3n3sb3ybyu","648","stimuli/23_50.jpg","f","response","f","true"
"","","","","","html-keyboard-response","182","2.0.0","248144","p3n3sb3ybyu","null","<p style=""border: 5px solid green;"">Correct!</p>","null","","",""
"","","","","","html-keyboard-response","183","2.0.0","249158","p3n3sb3ybyu","null","<div style=""font-size: 75px;"">+</div>","null","","",""
"","","","","","image-keyboard-response","184","2.0.0","249971","p3n3sb3ybyu","811","stimuli/34_0_R.jpg","j","response","j","true"
"","","","","","html-keyboard-response","185","2.0.0","250481","p3n3sb3ybyu","null","<p style=""border: 5px solid green;"">Correct!</p>","null","","",""
"","","","","","html-keyboard-response","186","2.0.0","251495","p3n3sb3ybyu","null","<div style=""font-size: 75px;"">+</div>","null","","",""
"","","","","","image-keyboard-response","187","2.0.0","254788","p3n3sb3ybyu","3293","stimuli/1_150.jpg","f","response","f","true"
"","","","","","html-keyboard-response","188","2.0.0","255297","p3n3sb3ybyu","null","<p style=""border: 5px solid green;"">Correct!</p>","null","","",""
"","","","","","html-keyboard-response","189","2.0.0","256311","p3n3sb3ybyu","null","<div style=""font-size: 75px;"">+</div>","null","","",""
"","","","","","image-keyboard-response","190","2.0.0","257545","p3n3sb3ybyu","1233","stimuli/44_50.jpg","j","response","f","false"
"","","","","","html-keyboard-response","191","2.0.0","258059","p3n3sb3ybyu","null","<p style=""border: 5px solid red;"">Incorrect.</p>","null","","",""
"","","","","","html-keyboard-response","192","2.0.0","259068","p3n3sb3ybyu","null","<div style=""font-size: 75px;"">+</div>","null","","",""
"","","","","","image-keyboard-response","193","2.0.0","259080","p3n3sb3ybyu","11","stimuli/25_0_R.jpg","j","response","j","true"
"","","","","","html-keyboard-response","194","2.0.0","259585","p3n3sb3ybyu","null","<p style=""border: 5px solid green;"">Correct!</p>","null","","",""
"","","","","","html-keyboard-response","195","2.0.0","260598","p3n3sb3ybyu","null","<div style=""font-size: 75px;"">+</div>","null","","",""
"","","","","","image-keyboard-response","196","2.0.0","261234","p3n3sb3ybyu","635","stimuli/44_100.jpg","f","response","f","true"
"","","","","","html-keyboard-response","197","2.0.0","261745","p3n3sb3ybyu","null","<p style=""border: 5px solid green;"">Correct!</p>","null","","",""
"","","","","","html-keyboard-response","198","2.0.0","262759","p3n3sb3ybyu","null","<div style=""font-size: 75px;"">+</div>","null","","",""
"","","","","","image-keyboard-response","199","2.0.0","263728","p3n3sb3ybyu","968","stimuli/5_150_R.jpg","j","response","j","true"
"","","","","","html-keyboard-response","200","2.0.0","264241","p3n3sb3ybyu","null","<p style=""border: 5px solid green;"">Correct!</p>","null","","",""
"","","","","","html-keyboard-response","201","2.0.0","265252","p3n3sb3ybyu","null","<div style=""font-size: 75px;"">+</div>","null","","",""
"","","","","","image-keyboard-response","202","2.0.0","265865","p3n3sb3ybyu","612","stimuli/9_100.jpg","f","response","f","true"
"","","","","","html-keyboard-response","203","2.0.0","266377","p3n3sb3ybyu","null","<p style=""border: 5px solid green;"">Correct!</p>","null","","",""
"","","","","","html-keyboard-response","204","2.0.0","267389","p3n3sb3ybyu","null","<div style=""font-size: 75px;"">+</div>","null","","",""
"","","","","","image-keyboard-response","205","2.0.0","268361","p3n3sb3ybyu","970","stimuli/25_150.jpg","j","response","f","false"
"","","","","","html-keyboard-response","206","2.0.0","268867","p3n3sb3ybyu","null","<p style=""border: 5px solid red;"">Incorrect.</p>","null","","",""
"","","","","","html-keyboard-response","207","2.0.0","269882","p3n3sb3ybyu","null","<div style=""font-size: 75px;"">+</div>","null","","",""
"","","","","","image-keyboard-response","208","2.0.0","270839","p3n3sb3ybyu","956","stimuli/41_100_R.jpg","j","response","j","true"
"","","","","","html-keyboard-response","209","2.0.0","271351","p3n3sb3ybyu","null","<p style=""border: 5px solid green;"">Correct!</p>","null","","",""
"","","","","","html-keyboard-response","210","2.0.0","272362","p3n3sb3ybyu","null","<div style=""font-size: 75px;"">+</div>","null","","",""
"","","","","","image-keyboard-response","211","2.0.0","272849","p3n3sb3ybyu","486","stimuli/3_100_R.jpg","f","response","j","false"
"","","","","","html-keyboard-response","212","2.0.0","273361","p3n3sb3ybyu","null","<p style=""border: 5px solid red;"">Incorrect.</p>","null","","",""
"","","","","","html-keyboard-response","213","2.0.0","274374","p3n3sb3ybyu","null","<div style=""font-size: 75px;"">+</div>","null","","",""
"","","","","","image-keyboard-response","214","2.0.0","274448","p3n3sb3ybyu","73","stimuli/8_50.jpg","j","response","f","false"
"","","","","","html-keyboard-response","215","2.0.0","274952","p3n3sb3ybyu","null","<p style=""border: 5px solid red;"">Incorrect.</p>","null","","",""
"","","","","","html-keyboard-response","216","2.0.0","275954","p3n3sb3ybyu","null","<div style=""font-size: 75px;"">+</div>","null","","",""
"","","","","","image-keyboard-response","217","2.0.0","276032","p3n3sb3ybyu","77","stimuli/15_100.jpg","f","response","f","true"
"","","","","","html-keyboard-response","218","2.0.0","276547","p3n3sb3ybyu","null","<p style=""border: 5px solid green;"">Correct!</p>","null","","",""
"","","","","","html-keyboard-response","219","2.0.0","277560","p3n3sb3ybyu","null","<div style=""font-size: 75px;"">+</div>","null","","",""
"","","","","","image-keyboard-response","220","2.0.0","278049","p3n3sb3ybyu","488","stimuli/3_150_R.jpg","f","response","j","false"
"","","","","","html-keyboard-response","221","2.0.0","278556","p3n3sb3ybyu","null","<p style=""border: 5px solid red;"">Incorrect.</p>","null","","",""
"","","","","","html-keyboard-response","222","2.0.0","279564","p3n3sb3ybyu","null","<div style=""font-size: 75px;"">+</div>","null","","",""
"","","","","","image-keyboard-response","223","2.0.0","279961","p3n3sb3ybyu","397","stimuli/22_150.jpg","j","response","f","false"
"","","","","","html-keyboard-response","224","2.0.0","280474","p3n3sb3ybyu","null","<p style=""border: 5px solid red;"">Incorrect.</p>","null","","",""
"","","","","","html-keyboard-response","225","2.0.0","281484","p3n3sb3ybyu","null","<div style=""font-size: 75px;"">+</div>","null","","",""
"","","","","","image-keyboard-response","226","2.0.0","281645","p3n3sb3ybyu","160","stimuli/27_150_R.jpg","f","response","j","false"
"","","","","","html-keyboard-response","227","2.0.0","282157","p3n3sb3ybyu","null","<p style=""border: 5px solid red;"">Incorrect.</p>","null","","",""
"","","","","","html-keyboard-response","228","2.0.0","283171","p3n3sb3ybyu","null","<div style=""font-size: 75px;"">+</div>","null","","",""
"","","","","","image-keyboard-response","229","2.0.0","283560","p3n3sb3ybyu","388","stimuli/3_150.jpg","f","response","f","true"
"","","","","","html-keyboard-response","230","2.0.0","284073","p3n3sb3ybyu","null","<p style=""border: 5px solid green;"">Correct!</p>","null","","",""
"","","","","","html-keyboard-response","231","2.0.0","285078","p3n3sb3ybyu","null","<div style=""font-size: 75px;"">+</div>","null","","",""
"","","","","","image-keyboard-response","232","2.0.0","285925","p3n3sb3ybyu","846","stimuli/41_100.jpg","f","response","f","true"
"","","","","","html-keyboard-response","233","2.0.0","286431","p3n3sb3ybyu","null","<p style=""border: 5px solid green;"">Correct!</p>","null","","",""
"","","","","","html-keyboard-response","234","2.0.0","287444","p3n3sb3ybyu","null","<div style=""font-size: 75px;"">+</div>","null","","",""
"","","","","","image-keyboard-response","235","2.0.0","288247","p3n3sb3ybyu","802","stimuli/23_0_R.jpg","j","response","j","true"
"","","","","","html-keyboard-response","236","2.0.0","288754","p3n3sb3ybyu","null","<p style=""border: 5px solid green;"">Correct!</p>","null","","",""
"","","","","","html-keyboard-response","237","2.0.0","289767","p3n3sb3ybyu","null","<div style=""font-size: 75px;"">+</div>","null","","",""
"","","","","","image-keyboard-response","238","2.0.0","290331","p3n3sb3ybyu","563","stimuli/48_0.jpg","f","response","f","true"
"","","","","","html-keyboard-response","239","2.0.0","290844","p3n3sb3ybyu","null","<p style=""border: 5px solid green;"">Correct!</p>","null","","",""
"","","","","","html-keyboard-response","240","2.0.0","291859","p3n3sb3ybyu","null","<div style=""font-size: 75px;"">+</div>","null","","",""
"","","","","","image-keyboard-response","241","2.0.0","292477","p3n3sb3ybyu","617","stimuli/42_50.jpg","f","response","f","true"
"","","","","","html-keyboard-response","242","2.0.0","292982","p3n3sb3ybyu","null","<p style=""border: 5px solid green;"">Correct!</p>","null","","",""
"","","","","","html-keyboard-response","243","2.0.0","293992","p3n3sb3ybyu","null","<div style=""font-size: 75px;"">+</div>","null","","",""
"","","","","","image-keyboard-response","244","2.0.0","295022","p3n3sb3ybyu","1029","stimuli/21_0.jpg","f","response","f","true"
"","","","","","html-keyboard-response","245","2.0.0","295537","p3n3sb3ybyu","null","<p style=""border: 5px solid green;"">Correct!</p>","null","","",""
"","","","","","html-keyboard-response","246","2.0.0","296547","p3n3sb3ybyu","null","<div style=""font-size: 75px;"">+</div>","null","","",""
"","","","","","image-keyboard-response","247","2.0.0","296587","p3n3sb3ybyu","39","stimuli/35_50_R.jpg","j","response","j","true"
"","","","","","html-keyboard-response","248","2.0.0","297091","p3n3sb3ybyu","null","<p style=""border: 5px solid green;"">Correct!</p>","null","","",""
"","","","","","html-keyboard-response","249","2.0.0","298106","p3n3sb3ybyu","null","<div style=""font-size: 75px;"">+</div>","null","","",""
"","","","","","image-keyboard-response","250","2.0.0","298725","p3n3sb3ybyu","619","stimuli/37_100.jpg","j","response","f","false"
"","","","","","html-keyboard-response","251","2.0.0","299226","p3n3sb3ybyu","null","<p style=""border: 5px solid red;"">Incorrect.</p>","null","","",""
"","","","","","html-keyboard-response","252","2.0.0","300241","p3n3sb3ybyu","null","<div style=""font-size: 75px;"">+</div>","null","","",""
"","","","","","image-keyboard-response","253","2.0.0","300479","p3n3sb3ybyu","237","stimuli/35_0.jpg","f","response","f","true"
"","","","","","html-keyboard-response","254","2.0.0","300990","p3n3sb3ybyu","null","<p style=""border: 5px solid green;"">Correct!</p>","null","","",""
"","","","","","html-keyboard-response","255","2.0.0","302000","p3n3sb3ybyu","null","<div style=""font-size: 75px;"">+</div>","null","","",""
"","","","","","image-keyboard-response","256","2.0.0","303538","p3n3sb3ybyu","1537","stimuli/26_0_R.jpg","j","response","j","true"
"","","","","","html-keyboard-response","257","2.0.0","304041","p3n3sb3ybyu","null","<p style=""border: 5px solid green;"">Correct!</p>","null","","",""
"","","","","","html-keyboard-response","258","2.0.0","305053","p3n3sb3ybyu","null","<div style=""font-size: 75px;"">+</div>","null","","",""
"","","","","","image-keyboard-response","259","2.0.0","305948","p3n3sb3ybyu","895","stimuli/22_50.jpg","f","response","f","true"
"","","","","","html-keyboard-response","260","2.0.0","306457","p3n3sb3ybyu","null","<p style=""border: 5px solid green;"">Correct!</p>","null","","",""
"","","","","","html-keyboard-response","261","2.0.0","307469","p3n3sb3ybyu","null","<div style=""font-size: 75px;"">+</div>","null","","",""
"","","","","","image-keyboard-response","262","2.0.0","308102","p3n3sb3ybyu","632","stimuli/32_0.jpg","f","response","f","true"
"","","","","","html-keyboard-response","263","2.0.0","308611","p3n3sb3ybyu","null","<p style=""border: 5px solid green;"">Correct!</p>","null","","",""
"","","","","","html-keyboard-response","264","2.0.0","309624","p3n3sb3ybyu","null","<div style=""font-size: 75px;"">+</div>","null","","",""
"","","","","","image-keyboard-response","265","2.0.0","311088","p3n3sb3ybyu","1464","stimuli/10_100_R.jpg","f","response","j","false"
"","","","","","html-keyboard-response","266","2.0.0","311595","p3n3sb3ybyu","null","<p style=""border: 5px solid red;"">Incorrect.</p>","null","","",""
"","","","","","html-keyboard-response","267","2.0.0","312607","p3n3sb3ybyu","null","<div style=""font-size: 75px;"">+</div>","null","","",""
"","","","","","image-keyboard-response","268","2.0.0","312755","p3n3sb3ybyu","147","stimuli/6_100.jpg","f","response","f","true"
"","","","","","html-keyboard-response","269","2.0.0","313262","p3n3sb3ybyu","null","<p style=""border: 5px solid green;"">Correct!</p>","null","","",""
"","","","","","html-keyboard-response","270","2.0.0","314276","p3n3sb3ybyu","null","<div style=""font-size: 75px;"">+</div>","null","","",""
"","","","","","image-keyboard-response","271","2.0.0","314356","p3n3sb3ybyu","79","stimuli/20_0_R.jpg","j","response","j","true"
"","","","","","html-keyboard-response","272","2.0.0","314865","p3n3sb3ybyu","null","<p style=""border: 5px solid green;"">Correct!</p>","null","","",""
"","","","","","html-keyboard-response","273","2.0.0","315877","p3n3sb3ybyu","null","<div style=""font-size: 75px;"">+</div>","null","","",""
"","","","","","image-keyboard-response","274","2.0.0","316158","p3n3sb3ybyu","280","stimuli/48_150_R.jpg","f","response","j","false"
"","","","","","html-keyboard-response","275","2.0.0","316660","p3n3sb3ybyu","null","<p style=""border: 5px solid red;"">Incorrect.</p>","null","","",""
"","","","","","html-keyboard-response","276","2.0.0","317671","p3n3sb3ybyu","null","<div style=""font-size: 75px;"">+</div>","null","","",""
"","","","","","image-keyboard-response","277","2.0.0","318219","p3n3sb3ybyu","546","stimuli/9_0_R.jpg","f","response","j","false"
"","","","","","html-keyboard-response","278","2.0.0","318728","p3n3sb3ybyu","null","<p style=""border: 5px solid red;"">Incorrect.</p>","null","","",""
"","","","","","html-keyboard-response","279","2.0.0","319743","p3n3sb3ybyu","null","<div style=""font-size: 75px;"">+</div>","null","","",""
"","","","","","image-keyboard-response","280","2.0.0","319861","p3n3sb3ybyu","117","stimuli/18_50.jpg","f","response","f","true"
"","","","","","html-keyboard-response","281","2.0.0","320365","p3n3sb3ybyu","null","<p style=""border: 5px solid green;"">Correct!</p>","null","","",""
"","","","","","html-keyboard-response","282","2.0.0","321375","p3n3sb3ybyu","null","<div style=""font-size: 75px;"">+</div>","null","","",""
"","","","","","image-keyboard-response","283","2.0.0","321955","p3n3sb3ybyu","579","stimuli/1_100.jpg","j","response","f","false"
"","","","","","html-keyboard-response","284","2.0.0","322466","p3n3sb3ybyu","null","<p style=""border: 5px solid red;"">Incorrect.</p>","null","","",""
"","","","","","html-keyboard-response","285","2.0.0","323481","p3n3sb3ybyu","null","<div style=""font-size: 75px;"">+</div>","null","","",""
"","","","","","image-keyboard-response","286","2.0.0","324516","p3n3sb3ybyu","1035","stimuli/24_100_R.jpg","f","response","j","false"
"","","","","","html-keyboard-response","287","2.0.0","325023","p3n3sb3ybyu","null","<p style=""border: 5px solid red;"">Incorrect.</p>","null","","",""
"","","","","","html-keyboard-response","288","2.0.0","326033","p3n3sb3ybyu","null","<div style=""font-size: 75px;"">+</div>","null","","",""
"","","","","","image-keyboard-response","289","2.0.0","326773","p3n3sb3ybyu","739","stimuli/14_0.jpg","f","response","f","true"
"","","","","","html-keyboard-response","290","2.0.0","327278","p3n3sb3ybyu","null","<p style=""border: 5px solid green;"">Correct!</p>","null","","",""
"","","","","","html-keyboard-response","291","2.0.0","328290","p3n3sb3ybyu","null","<div style=""font-size: 75px;"">+</div>","null","","",""
"","","","","","image-keyboard-response","292","2.0.0","330028","p3n3sb3ybyu","1737","stimuli/16_50_R.jpg","j","response","j","true"
"","","","","","html-keyboard-response","293","2.0.0","330534","p3n3sb3ybyu","null","<p style=""border: 5px solid green;"">Correct!</p>","null","","",""
"","","","","","html-keyboard-response","294","2.0.0","332043","p3n3sb3ybyu","1508","<p>Thank you for participating!</p><p>Please press space to answer our survey.</p>"," ","","",""
"","","","","","survey-html-form","295","null","425460","p3n3sb3ybyu","93414","","{""response_1"":""Perfectly clear and lively as real seeing"",""response_2"":""Clear and lively"",""response_3"":""Clear and lively"",""response_4"":""Moderately clear and lively"",""response_5"":""Clear and lively"",""response_6"":""Clear and lively"",""response_7"":""Dim and vague; flat"",""response_8"":""Moderately clear and lively"",""response_9"":""Perfectly clear and lively as real seeing"",""response_10"":""Clear and lively"",""response_11"":""Perfectly clear and lively as real seeing"",""response_12"":""Perfectly clear and lively as real seeing"",""response_13"":""Moderately clear and lively"",""response_14"":""Moderately clear and lively"",""response_15"":""Clear and lively"",""response_16"":""Dim and vague; flat""}","","",""
"","","","","","survey-html-form","296","null","469089","p3n3sb3ybyu","43626","","{""age"":""26"",""gender"":""male"",""education"":""some-college"",""handedness"":""right"",""vision"":""impaired"",""technical_difficulties"":""nope"",""knowledge_check"":""How well people can visualize images, as well as mentally rotate/imagine what it would like like from other angles""}","","",""
