"success","timeout","failed_images","failed_audio","failed_video","trial_type","trial_index","plugin_version","time_elapsed","random_id","rt","stimulus","response","task","correct_response","correct"
"true","false","[]","[]","[]","preload","0","2.0.0","2660","p4bc8wto6fd","","","","","",""
"true","","","","","fullscreen","1","2.0.0","7899","p4bc8wto6fd","4236","","","","",""
"","","","","","html-keyboard-response","2","2.0.0","8125","p4bc8wto6fd","224","Welcome to the experiment. Press any key to begin."," ","","",""
"","","","","","survey-text","3","2.0.0","10070","p4bc8wto6fd","1942","","{""participant_id"":""parrot""}","","",""
"","","","","","html-keyboard-response","4","2.0.0","20238","p4bc8wto6fd","10166","
        <p>Welcome to the experiment.</p>
        <p>In this task, you will see pairs of images.</p>
        <p>Your job is to determine whether the image on the right is a rotated version of the image on the left.</p>
        <p>Press the <strong>F</strong> key if the images are the same.</p>
        <p>Press the <strong>J</strong> key if the images are different.</p>
        <p>Press any key to begin.</p>
    "," ","","",""
"","","","","","html-keyboard-response","5","2.0.0","21241","p4bc8wto6fd","null","<div style=""font-size: 75px;"">+</div>","null","","",""
"","","","","","image-keyboard-response","6","2.0.0","24432","p4bc8wto6fd","3185","stimuli/1_0.jpg","f","response","f","true"
"","","","","","html-keyboard-response","7","2.0.0","24935","p4bc8wto6fd","null","<p style=""border: 5px solid green;"">Correct!</p>","null","","",""
"","","","","","html-keyboard-response","8","2.0.0","25939","p4bc8wto6fd","null","<div style=""font-size: 75px;"">+</div>","null","","",""
"","","","","","image-keyboard-response","9","2.0.0","28129","p4bc8wto6fd","2187","stimuli/42_150.jpg","f","response","f","true"
"","","","","","html-keyboard-response","10","2.0.0","28631","p4bc8wto6fd","null","<p style=""border: 5px solid green;"">Correct!</p>","null","","",""
"","","","","","html-keyboard-response","11","2.0.0","29635","p4bc8wto6fd","null","<div style=""font-size: 75px;"">+</div>","null","","",""
"","","","","","image-keyboard-response","12","2.0.0","31380","p4bc8wto6fd","1743","stimuli/17_100_R.jpg","f","response","j","false"
"","","","","","html-keyboard-response","13","2.0.0","31883","p4bc8wto6fd","null","<p style=""border: 5px solid red;"">Incorrect.</p>","null","","",""
"","","","","","html-keyboard-response","14","2.0.0","32886","p4bc8wto6fd","null","<div style=""font-size: 75px;"">+</div>","null","","",""
"","","","","","image-keyboard-response","15","2.0.0","42706","p4bc8wto6fd","9818","stimuli/45_100_R.jpg","f","response","j","false"
"","","","","","html-keyboard-response","16","2.0.0","43208","p4bc8wto6fd","null","<p style=""border: 5px solid red;"">Incorrect.</p>","null","","",""
"","","","","","html-keyboard-response","17","2.0.0","44211","p4bc8wto6fd","null","<div style=""font-size: 75px;"">+</div>","null","","",""
"","","","","","image-keyboard-response","18","2.0.0","48223","p4bc8wto6fd","4010","stimuli/46_0_R.jpg","j","response","j","true"
"","","","","","html-keyboard-response","19","2.0.0","48725","p4bc8wto6fd","null","<p style=""border: 5px solid green;"">Correct!</p>","null","","",""
"","","","","","html-keyboard-response","20","2.0.0","49728","p4bc8wto6fd","null","<div style=""font-size: 75px;"">+</div>","null","","",""
"","","","","","image-keyboard-response","21","2.0.0","53619","p4bc8wto6fd","3888","stimuli/19_150_R.jpg","j","response","j","true"
"","","","","","html-keyboard-response","22","2.0.0","54121","p4bc8wto6fd","null","<p style=""border: 5px solid green;"">Correct!</p>","null","","",""
"","","","","","html-keyboard-response","23","2.0.0","55123","p4bc8wto6fd","null","<div style=""font-size: 75px;"">+</div>","null","","",""
"","","","","","image-keyboard-response","24","2.0.0","59454","p4bc8wto6fd","4327","stimuli/44_50_R.jpg","f","response","j","false"
"","","","","","html-keyboard-response","25","2.0.0","59957","p4bc8wto6fd","null","<p style=""border: 5px solid red;"">Incorrect.</p>","null","","",""
"","","","","","html-keyboard-response","26","2.0.0","60960","p4bc8wto6fd","null","<div style=""font-size: 75px;"">+</div>","null","","",""
"","","","","","image-keyboard-response","27","2.0.0","65405","p4bc8wto6fd","4442","stimuli/32_100_R.jpg","f","response","j","false"
"","","","","","html-keyboard-response","28","2.0.0","65907","p4bc8wto6fd","null","<p style=""border: 5px solid red;"">Incorrect.</p>","null","","",""
"","","","","","html-keyboard-response","29","2.0.0","66910","p4bc8wto6fd","null","<div style=""font-size: 75px;"">+</div>","null","","",""
"","","","","","image-keyboard-response","30","2.0.0","76018","p4bc8wto6fd","9105","stimuli/30_150.jpg","f","response","f","true"
"","","","","","html-keyboard-response","31","2.0.0","76520","p4bc8wto6fd","null","<p style=""border: 5px solid green;"">Correct!</p>","null","","",""
"","","","","","html-keyboard-response","32","2.0.0","77524","p4bc8wto6fd","null","<div style=""font-size: 75px;"">+</div>","null","","",""
"","","","","","image-keyboard-response","33","2.0.0","78733","p4bc8wto6fd","1204","stimuli/6_0.jpg","f","response","f","true"
"","","","","","html-keyboard-response","34","2.0.0","79235","p4bc8wto6fd","null","<p style=""border: 5px solid green;"">Correct!</p>","null","","",""
"","","","","","html-keyboard-response","35","2.0.0","80239","p4bc8wto6fd","null","<div style=""font-size: 75px;"">+</div>","null","","",""
"","","","","","image-keyboard-response","36","2.0.0","83287","p4bc8wto6fd","3046","stimuli/39_100_R.jpg","f","response","j","false"
"","","","","","html-keyboard-response","37","2.0.0","83789","p4bc8wto6fd","null","<p style=""border: 5px solid red;"">Incorrect.</p>","null","","",""
"","","","","","html-keyboard-response","38","2.0.0","84791","p4bc8wto6fd","null","<div style=""font-size: 75px;"">+</div>","null","","",""
"","","","","","image-keyboard-response","39","2.0.0","85755","p4bc8wto6fd","962","stimuli/40_0.jpg","f","response","f","true"
"","","","","","html-keyboard-response","40","2.0.0","86257","p4bc8wto6fd","null","<p style=""border: 5px solid green;"">Correct!</p>","null","","",""
"","","","","","html-keyboard-response","41","2.0.0","87260","p4bc8wto6fd","null","<div style=""font-size: 75px;"">+</div>","null","","",""
"","","","","","image-keyboard-response","42","2.0.0","89896","p4bc8wto6fd","2634","stimuli/18_50_R.jpg","j","response","j","true"
"","","","","","html-keyboard-response","43","2.0.0","90397","p4bc8wto6fd","null","<p style=""border: 5px solid green;"">Correct!</p>","null","","",""
"","","","","","html-keyboard-response","44","2.0.0","91400","p4bc8wto6fd","null","<div style=""font-size: 75px;"">+</div>","null","","",""
"","","","","","image-keyboard-response","45","2.0.0","95158","p4bc8wto6fd","3755","stimuli/48_100.jpg","f","response","f","true"
"","","","","","html-keyboard-response","46","2.0.0","95660","p4bc8wto6fd","null","<p style=""border: 5px solid green;"">Correct!</p>","null","","",""
"","","","","","html-keyboard-response","47","2.0.0","96663","p4bc8wto6fd","null","<div style=""font-size: 75px;"">+</div>","null","","",""
"","","","","","image-keyboard-response","48","2.0.0","99216","p4bc8wto6fd","2552","stimuli/12_150.jpg","f","response","f","true"
"","","","","","html-keyboard-response","49","2.0.0","99718","p4bc8wto6fd","null","<p style=""border: 5px solid green;"">Correct!</p>","null","","",""
"","","","","","html-keyboard-response","50","2.0.0","100722","p4bc8wto6fd","null","<div style=""font-size: 75px;"">+</div>","null","","",""
"","","","","","image-keyboard-response","51","2.0.0","104593","p4bc8wto6fd","3869","stimuli/11_150.jpg","f","response","f","true"
"","","","","","html-keyboard-response","52","2.0.0","105096","p4bc8wto6fd","null","<p style=""border: 5px solid green;"">Correct!</p>","null","","",""
"","","","","","html-keyboard-response","53","2.0.0","106099","p4bc8wto6fd","null","<div style=""font-size: 75px;"">+</div>","null","","",""
"","","","","","image-keyboard-response","54","2.0.0","108771","p4bc8wto6fd","2669","stimuli/33_0.jpg","f","response","f","true"
"","","","","","html-keyboard-response","55","2.0.0","109273","p4bc8wto6fd","null","<p style=""border: 5px solid green;"">Correct!</p>","null","","",""
"","","","","","html-keyboard-response","56","2.0.0","110276","p4bc8wto6fd","null","<div style=""font-size: 75px;"">+</div>","null","","",""
"","","","","","image-keyboard-response","57","2.0.0","114407","p4bc8wto6fd","4128","stimuli/29_100_R.jpg","j","response","j","true"
"","","","","","html-keyboard-response","58","2.0.0","114908","p4bc8wto6fd","null","<p style=""border: 5px solid green;"">Correct!</p>","null","","",""
"","","","","","html-keyboard-response","59","2.0.0","115911","p4bc8wto6fd","null","<div style=""font-size: 75px;"">+</div>","null","","",""
"","","","","","image-keyboard-response","60","2.0.0","118393","p4bc8wto6fd","2478","stimuli/3_0_R.jpg","j","response","j","true"
"","","","","","html-keyboard-response","61","2.0.0","118895","p4bc8wto6fd","null","<p style=""border: 5px solid green;"">Correct!</p>","null","","",""
"","","","","","html-keyboard-response","62","2.0.0","119899","p4bc8wto6fd","null","<div style=""font-size: 75px;"">+</div>","null","","",""
"","","","","","image-keyboard-response","63","2.0.0","121248","p4bc8wto6fd","1347","stimuli/23_0.jpg","f","response","f","true"
"","","","","","html-keyboard-response","64","2.0.0","121749","p4bc8wto6fd","null","<p style=""border: 5px solid green;"">Correct!</p>","null","","",""
"","","","","","html-keyboard-response","65","2.0.0","122752","p4bc8wto6fd","null","<div style=""font-size: 75px;"">+</div>","null","","",""
"","","","","","image-keyboard-response","66","2.0.0","124861","p4bc8wto6fd","2107","stimuli/31_0_R.jpg","j","response","j","true"
"","","","","","html-keyboard-response","67","2.0.0","125364","p4bc8wto6fd","null","<p style=""border: 5px solid green;"">Correct!</p>","null","","",""
"","","","","","html-keyboard-response","68","2.0.0","126367","p4bc8wto6fd","null","<div style=""font-size: 75px;"">+</div>","null","","",""
"","","","","","image-keyboard-response","69","2.0.0","128033","p4bc8wto6fd","1664","stimuli/42_50.jpg","j","response","f","false"
"","","","","","html-keyboard-response","70","2.0.0","128535","p4bc8wto6fd","null","<p style=""border: 5px solid red;"">Incorrect.</p>","null","","",""
"","","","","","html-keyboard-response","71","2.0.0","129538","p4bc8wto6fd","null","<div style=""font-size: 75px;"">+</div>","null","","",""
"","","","","","image-keyboard-response","72","2.0.0","131672","p4bc8wto6fd","2131","stimuli/24_50_R.jpg","f","response","j","false"
"","","","","","html-keyboard-response","73","2.0.0","132174","p4bc8wto6fd","null","<p style=""border: 5px solid red;"">Incorrect.</p>","null","","",""
"","","","","","html-keyboard-response","74","2.0.0","133177","p4bc8wto6fd","null","<div style=""font-size: 75px;"">+</div>","null","","",""
"","","","","","image-keyboard-response","75","2.0.0","134890","p4bc8wto6fd","1711","stimuli/28_0_R.jpg","j","response","j","true"
"","","","","","html-keyboard-response","76","2.0.0","135392","p4bc8wto6fd","null","<p style=""border: 5px solid green;"">Correct!</p>","null","","",""
"","","","","","html-keyboard-response","77","2.0.0","136395","p4bc8wto6fd","null","<div style=""font-size: 75px;"">+</div>","null","","",""
"","","","","","image-keyboard-response","78","2.0.0","139587","p4bc8wto6fd","3189","stimuli/47_50.jpg","f","response","f","true"
"","","","","","html-keyboard-response","79","2.0.0","140088","p4bc8wto6fd","null","<p style=""border: 5px solid green;"">Correct!</p>","null","","",""
"","","","","","html-keyboard-response","80","2.0.0","141091","p4bc8wto6fd","null","<div style=""font-size: 75px;"">+</div>","null","","",""
"","","","","","image-keyboard-response","81","2.0.0","144137","p4bc8wto6fd","3044","stimuli/42_100_R.jpg","j","response","j","true"
"","","","","","html-keyboard-response","82","2.0.0","144639","p4bc8wto6fd","null","<p style=""border: 5px solid green;"">Correct!</p>","null","","",""
"","","","","","html-keyboard-response","83","2.0.0","145643","p4bc8wto6fd","null","<div style=""font-size: 75px;"">+</div>","null","","",""
"","","","","","image-keyboard-response","84","2.0.0","147525","p4bc8wto6fd","1880","stimuli/36_50.jpg","j","response","f","false"
"","","","","","html-keyboard-response","85","2.0.0","148028","p4bc8wto6fd","null","<p style=""border: 5px solid red;"">Incorrect.</p>","null","","",""
"","","","","","html-keyboard-response","86","2.0.0","149031","p4bc8wto6fd","null","<div style=""font-size: 75px;"">+</div>","null","","",""
"","","","","","image-keyboard-response","87","2.0.0","151011","p4bc8wto6fd","1977","stimuli/7_50.jpg","f","response","f","true"
"","","","","","html-keyboard-response","88","2.0.0","151512","p4bc8wto6fd","null","<p style=""border: 5px solid green;"">Correct!</p>","null","","",""
"","","","","","html-keyboard-response","89","2.0.0","152514","p4bc8wto6fd","null","<div style=""font-size: 75px;"">+</div>","null","","",""
"","","","","","image-keyboard-response","90","2.0.0","153612","p4bc8wto6fd","1096","stimuli/3_0.jpg","f","response","f","true"
"","","","","","html-keyboard-response","91","2.0.0","154115","p4bc8wto6fd","null","<p style=""border: 5px solid green;"">Correct!</p>","null","","",""
"","","","","","html-keyboard-response","92","2.0.0","155117","p4bc8wto6fd","null","<div style=""font-size: 75px;"">+</div>","null","","",""
"","","","","","image-keyboard-response","93","2.0.0","157066","p4bc8wto6fd","1947","stimuli/8_100_R.jpg","j","response","j","true"
"","","","","","html-keyboard-response","94","2.0.0","157567","p4bc8wto6fd","null","<p style=""border: 5px solid green;"">Correct!</p>","null","","",""
"","","","","","html-keyboard-response","95","2.0.0","158570","p4bc8wto6fd","null","<div style=""font-size: 75px;"">+</div>","null","","",""
"","","","","","image-keyboard-response","96","2.0.0","163035","p4bc8wto6fd","4464","stimuli/44_100.jpg","f","response","f","true"
"","","","","","html-keyboard-response","97","2.0.0","163538","p4bc8wto6fd","null","<p style=""border: 5px solid green;"">Correct!</p>","null","","",""
"","","","","","html-keyboard-response","98","2.0.0","164542","p4bc8wto6fd","null","<div style=""font-size: 75px;"">+</div>","null","","",""
"","","","","","image-keyboard-response","99","2.0.0","166624","p4bc8wto6fd","2080","stimuli/30_0_R.jpg","j","response","j","true"
"","","","","","html-keyboard-response","100","2.0.0","167126","p4bc8wto6fd","null","<p style=""border: 5px solid green;"">Correct!</p>","null","","",""
"","","","","","html-keyboard-response","101","2.0.0","168128","p4bc8wto6fd","null","<div style=""font-size: 75px;"">+</div>","null","","",""
"","","","","","image-keyboard-response","102","2.0.0","169304","p4bc8wto6fd","1175","stimuli/35_0.jpg","f","response","f","true"
"","","","","","html-keyboard-response","103","2.0.0","169806","p4bc8wto6fd","null","<p style=""border: 5px solid green;"">Correct!</p>","null","","",""
"","","","","","html-keyboard-response","104","2.0.0","170808","p4bc8wto6fd","null","<div style=""font-size: 75px;"">+</div>","null","","",""
"","","","","","image-keyboard-response","105","2.0.0","172413","p4bc8wto6fd","1603","stimuli/10_50_R.jpg","j","response","j","true"
"","","","","","html-keyboard-response","106","2.0.0","172916","p4bc8wto6fd","null","<p style=""border: 5px solid green;"">Correct!</p>","null","","",""
"","","","","","html-keyboard-response","107","2.0.0","173919","p4bc8wto6fd","null","<div style=""font-size: 75px;"">+</div>","null","","",""
"","","","","","image-keyboard-response","108","2.0.0","175438","p4bc8wto6fd","1516","stimuli/16_50_R.jpg","j","response","j","true"
"","","","","","html-keyboard-response","109","2.0.0","175939","p4bc8wto6fd","null","<p style=""border: 5px solid green;"">Correct!</p>","null","","",""
"","","","","","html-keyboard-response","110","2.0.0","176943","p4bc8wto6fd","null","<div style=""font-size: 75px;"">+</div>","null","","",""
"","","","","","image-keyboard-response","111","2.0.0","177786","p4bc8wto6fd","842","stimuli/5_0.jpg","f","response","f","true"
"","","","","","html-keyboard-response","112","2.0.0","178288","p4bc8wto6fd","null","<p style=""border: 5px solid green;"">Correct!</p>","null","","",""
"","","","","","html-keyboard-response","113","2.0.0","179290","p4bc8wto6fd","null","<div style=""font-size: 75px;"">+</div>","null","","",""
"","","","","","image-keyboard-response","114","2.0.0","182830","p4bc8wto6fd","3539","stimuli/45_50.jpg","j","response","f","false"
"","","","","","html-keyboard-response","115","2.0.0","183333","p4bc8wto6fd","null","<p style=""border: 5px solid red;"">Incorrect.</p>","null","","",""
"","","","","","html-keyboard-response","116","2.0.0","184336","p4bc8wto6fd","null","<div style=""font-size: 75px;"">+</div>","null","","",""
"","","","","","image-keyboard-response","117","2.0.0","184420","p4bc8wto6fd","83","stimuli/6_50_R.jpg","j","response","j","true"
"","","","","","html-keyboard-response","118","2.0.0","184922","p4bc8wto6fd","null","<p style=""border: 5px solid green;"">Correct!</p>","null","","",""
"","","","","","html-keyboard-response","119","2.0.0","185926","p4bc8wto6fd","null","<div style=""font-size: 75px;"">+</div>","null","","",""
"","","","","","image-keyboard-response","120","2.0.0","187928","p4bc8wto6fd","2000","stimuli/12_50_R.jpg","j","response","j","true"
"","","","","","html-keyboard-response","121","2.0.0","188430","p4bc8wto6fd","null","<p style=""border: 5px solid green;"">Correct!</p>","null","","",""
"","","","","","html-keyboard-response","122","2.0.0","189433","p4bc8wto6fd","null","<div style=""font-size: 75px;"">+</div>","null","","",""
"","","","","","image-keyboard-response","123","2.0.0","190707","p4bc8wto6fd","1273","stimuli/36_150.jpg","j","response","f","false"
"","","","","","html-keyboard-response","124","2.0.0","191209","p4bc8wto6fd","null","<p style=""border: 5px solid red;"">Incorrect.</p>","null","","",""
"","","","","","html-keyboard-response","125","2.0.0","192213","p4bc8wto6fd","null","<div style=""font-size: 75px;"">+</div>","null","","",""
"","","","","","image-keyboard-response","126","2.0.0","197420","p4bc8wto6fd","5205","stimuli/5_100.jpg","j","response","f","false"
"","","","","","html-keyboard-response","127","2.0.0","197921","p4bc8wto6fd","null","<p style=""border: 5px solid red;"">Incorrect.</p>","null","","",""
"","","","","","html-keyboard-response","128","2.0.0","198923","p4bc8wto6fd","null","<div style=""font-size: 75px;"">+</div>","null","","",""
"","","","","","image-keyboard-response","129","2.0.0","200042","p4bc8wto6fd","1117","stimuli/26_50.jpg","f","response","f","true"
"","","","","","html-keyboard-response","130","2.0.0","200544","p4bc8wto6fd","null","<p style=""border: 5px solid green;"">Correct!</p>","null","","",""
"","","","","","html-keyboard-response","131","2.0.0","201548","p4bc8wto6fd","null","<div style=""font-size: 75px;"">+</div>","null","","",""
"","","","","","image-keyboard-response","132","2.0.0","203502","p4bc8wto6fd","1953","stimuli/8_0_R.jpg","j","response","j","true"
"","","","","","html-keyboard-response","133","2.0.0","204003","p4bc8wto6fd","null","<p style=""border: 5px solid green;"">Correct!</p>","null","","",""
"","","","","","html-keyboard-response","134","2.0.0","205007","p4bc8wto6fd","null","<div style=""font-size: 75px;"">+</div>","null","","",""
"","","","","","image-keyboard-response","135","2.0.0","206261","p4bc8wto6fd","1252","stimuli/24_0.jpg","f","response","f","true"
"","","","","","html-keyboard-response","136","2.0.0","206763","p4bc8wto6fd","null","<p style=""border: 5px solid green;"">Correct!</p>","null","","",""
"","","","","","html-keyboard-response","137","2.0.0","207765","p4bc8wto6fd","null","<div style=""font-size: 75px;"">+</div>","null","","",""
"","","","","","image-keyboard-response","138","2.0.0","210086","p4bc8wto6fd","2319","stimuli/42_150_R.jpg","j","response","j","true"
"","","","","","html-keyboard-response","139","2.0.0","210588","p4bc8wto6fd","null","<p style=""border: 5px solid green;"">Correct!</p>","null","","",""
"","","","","","html-keyboard-response","140","2.0.0","211591","p4bc8wto6fd","null","<div style=""font-size: 75px;"">+</div>","null","","",""
"","","","","","image-keyboard-response","141","2.0.0","215202","p4bc8wto6fd","3609","stimuli/43_50.jpg","f","response","f","true"
"","","","","","html-keyboard-response","142","2.0.0","215705","p4bc8wto6fd","null","<p style=""border: 5px solid green;"">Correct!</p>","null","","",""
"","","","","","html-keyboard-response","143","2.0.0","216708","p4bc8wto6fd","null","<div style=""font-size: 75px;"">+</div>","null","","",""
"","","","","","image-keyboard-response","144","2.0.0","218978","p4bc8wto6fd","2268","stimuli/32_0_R.jpg","j","response","j","true"
"","","","","","html-keyboard-response","145","2.0.0","219479","p4bc8wto6fd","null","<p style=""border: 5px solid green;"">Correct!</p>","null","","",""
"","","","","","html-keyboard-response","146","2.0.0","220483","p4bc8wto6fd","null","<div style=""font-size: 75px;"">+</div>","null","","",""
"","","","","","image-keyboard-response","147","2.0.0","222121","p4bc8wto6fd","1637","stimuli/22_50_R.jpg","j","response","j","true"
"","","","","","html-keyboard-response","148","2.0.0","222623","p4bc8wto6fd","null","<p style=""border: 5px solid green;"">Correct!</p>","null","","",""
"","","","","","html-keyboard-response","149","2.0.0","252627","p4bc8wto6fd","null","<p> Take a break! Experiment continues in 30 seconds . </p>","null","","",""
"","","","","","html-keyboard-response","150","2.0.0","253631","p4bc8wto6fd","null","<div style=""font-size: 75px;"">+</div>","null","","",""
"","","","","","image-keyboard-response","151","2.0.0","255506","p4bc8wto6fd","1873","stimuli/44_150_R.jpg","j","response","j","true"
"","","","","","html-keyboard-response","152","2.0.0","256007","p4bc8wto6fd","null","<p style=""border: 5px solid green;"">Correct!</p>","null","","",""
"","","","","","html-keyboard-response","153","2.0.0","257011","p4bc8wto6fd","null","<div style=""font-size: 75px;"">+</div>","null","","",""
"","","","","","image-keyboard-response","154","2.0.0","258099","p4bc8wto6fd","1087","stimuli/33_50_R.jpg","j","response","j","true"
"","","","","","html-keyboard-response","155","2.0.0","258602","p4bc8wto6fd","null","<p style=""border: 5px solid green;"">Correct!</p>","null","","",""
"","","","","","html-keyboard-response","156","2.0.0","259605","p4bc8wto6fd","null","<div style=""font-size: 75px;"">+</div>","null","","",""
"","","","","","image-keyboard-response","157","2.0.0","261775","p4bc8wto6fd","2167","stimuli/4_50.jpg","f","response","f","true"
"","","","","","html-keyboard-response","158","2.0.0","262277","p4bc8wto6fd","null","<p style=""border: 5px solid green;"">Correct!</p>","null","","",""
"","","","","","html-keyboard-response","159","2.0.0","263280","p4bc8wto6fd","null","<div style=""font-size: 75px;"">+</div>","null","","",""
"","","","","","image-keyboard-response","160","2.0.0","265969","p4bc8wto6fd","2687","stimuli/28_100_R.jpg","j","response","j","true"
"","","","","","html-keyboard-response","161","2.0.0","266471","p4bc8wto6fd","null","<p style=""border: 5px solid green;"">Correct!</p>","null","","",""
"","","","","","html-keyboard-response","162","2.0.0","267474","p4bc8wto6fd","null","<div style=""font-size: 75px;"">+</div>","null","","",""
"","","","","","image-keyboard-response","163","2.0.0","268998","p4bc8wto6fd","1522","stimuli/25_50_R.jpg","j","response","j","true"
"","","","","","html-keyboard-response","164","2.0.0","269500","p4bc8wto6fd","null","<p style=""border: 5px solid green;"">Correct!</p>","null","","",""
"","","","","","html-keyboard-response","165","2.0.0","270504","p4bc8wto6fd","null","<div style=""font-size: 75px;"">+</div>","null","","",""
"","","","","","image-keyboard-response","166","2.0.0","271652","p4bc8wto6fd","1146","stimuli/27_100.jpg","j","response","f","false"
"","","","","","html-keyboard-response","167","2.0.0","272154","p4bc8wto6fd","null","<p style=""border: 5px solid red;"">Incorrect.</p>","null","","",""
"","","","","","html-keyboard-response","168","2.0.0","273156","p4bc8wto6fd","null","<div style=""font-size: 75px;"">+</div>","null","","",""
"","","","","","image-keyboard-response","169","2.0.0","274003","p4bc8wto6fd","846","stimuli/34_0_R.jpg","j","response","j","true"
"","","","","","html-keyboard-response","170","2.0.0","274505","p4bc8wto6fd","null","<p style=""border: 5px solid green;"">Correct!</p>","null","","",""
"","","","","","html-keyboard-response","171","2.0.0","275508","p4bc8wto6fd","null","<div style=""font-size: 75px;"">+</div>","null","","",""
"","","","","","image-keyboard-response","172","2.0.0","276532","p4bc8wto6fd","1022","stimuli/43_100_R.jpg","f","response","j","false"
"","","","","","html-keyboard-response","173","2.0.0","277033","p4bc8wto6fd","null","<p style=""border: 5px solid red;"">Incorrect.</p>","null","","",""
"","","","","","html-keyboard-response","174","2.0.0","278036","p4bc8wto6fd","null","<div style=""font-size: 75px;"">+</div>","null","","",""
"","","","","","image-keyboard-response","175","2.0.0","279166","p4bc8wto6fd","1127","stimuli/7_0.jpg","f","response","f","true"
"","","","","","html-keyboard-response","176","2.0.0","279668","p4bc8wto6fd","null","<p style=""border: 5px solid green;"">Correct!</p>","null","","",""
"","","","","","html-keyboard-response","177","2.0.0","280672","p4bc8wto6fd","null","<div style=""font-size: 75px;"">+</div>","null","","",""
"","","","","","image-keyboard-response","178","2.0.0","281648","p4bc8wto6fd","974","stimuli/5_0_R.jpg","j","response","j","true"
"","","","","","html-keyboard-response","179","2.0.0","282151","p4bc8wto6fd","null","<p style=""border: 5px solid green;"">Correct!</p>","null","","",""
"","","","","","html-keyboard-response","180","2.0.0","283154","p4bc8wto6fd","null","<div style=""font-size: 75px;"">+</div>","null","","",""
"","","","","","image-keyboard-response","181","2.0.0","284534","p4bc8wto6fd","1378","stimuli/30_150_R.jpg","j","response","j","true"
"","","","","","html-keyboard-response","182","2.0.0","285035","p4bc8wto6fd","null","<p style=""border: 5px solid green;"">Correct!</p>","null","","",""
"","","","","","html-keyboard-response","183","2.0.0","286037","p4bc8wto6fd","null","<div style=""font-size: 75px;"">+</div>","null","","",""
"","","","","","image-keyboard-response","184","2.0.0","287911","p4bc8wto6fd","1872","stimuli/8_50_R.jpg","j","response","j","true"
"","","","","","html-keyboard-response","185","2.0.0","288413","p4bc8wto6fd","null","<p style=""border: 5px solid green;"">Correct!</p>","null","","",""
"","","","","","html-keyboard-response","186","2.0.0","289417","p4bc8wto6fd","null","<div style=""font-size: 75px;"">+</div>","null","","",""
"","","","","","image-keyboard-response","187","2.0.0","291460","p4bc8wto6fd","2041","stimuli/35_150.jpg","j","response","f","false"
"","","","","","html-keyboard-response","188","2.0.0","291961","p4bc8wto6fd","null","<p style=""border: 5px solid red;"">Incorrect.</p>","null","","",""
"","","","","","html-keyboard-response","189","2.0.0","292964","p4bc8wto6fd","null","<div style=""font-size: 75px;"">+</div>","null","","",""
"","","","","","image-keyboard-response","190","2.0.0","296985","p4bc8wto6fd","4019","stimuli/2_150.jpg","f","response","f","true"
"","","","","","html-keyboard-response","191","2.0.0","297488","p4bc8wto6fd","null","<p style=""border: 5px solid green;"">Correct!</p>","null","","",""
"","","","","","html-keyboard-response","192","2.0.0","298491","p4bc8wto6fd","null","<div style=""font-size: 75px;"">+</div>","null","","",""
"","","","","","image-keyboard-response","193","2.0.0","300516","p4bc8wto6fd","2022","stimuli/21_150.jpg","j","response","f","false"
"","","","","","html-keyboard-response","194","2.0.0","301017","p4bc8wto6fd","null","<p style=""border: 5px solid red;"">Incorrect.</p>","null","","",""
"","","","","","html-keyboard-response","195","2.0.0","302020","p4bc8wto6fd","null","<div style=""font-size: 75px;"">+</div>","null","","",""
"","","","","","image-keyboard-response","196","2.0.0","303566","p4bc8wto6fd","1544","stimuli/4_100_R.jpg","j","response","j","true"
"","","","","","html-keyboard-response","197","2.0.0","304069","p4bc8wto6fd","null","<p style=""border: 5px solid green;"">Correct!</p>","null","","",""
"","","","","","html-keyboard-response","198","2.0.0","305072","p4bc8wto6fd","null","<div style=""font-size: 75px;"">+</div>","null","","",""
"","","","","","image-keyboard-response","199","2.0.0","307817","p4bc8wto6fd","2742","stimuli/43_150_R.jpg","j","response","j","true"
"","","","","","html-keyboard-response","200","2.0.0","308319","p4bc8wto6fd","null","<p style=""border: 5px solid green;"">Correct!</p>","null","","",""
"","","","","","html-keyboard-response","201","2.0.0","309322","p4bc8wto6fd","null","<div style=""font-size: 75px;"">+</div>","null","","",""
"","","","","","image-keyboard-response","202","2.0.0","310933","p4bc8wto6fd","1610","stimuli/33_0_R.jpg","j","response","j","true"
"","","","","","html-keyboard-response","203","2.0.0","311436","p4bc8wto6fd","null","<p style=""border: 5px solid green;"">Correct!</p>","null","","",""
"","","","","","html-keyboard-response","204","2.0.0","312438","p4bc8wto6fd","null","<div style=""font-size: 75px;"">+</div>","null","","",""
"","","","","","image-keyboard-response","205","2.0.0","315949","p4bc8wto6fd","3509","stimuli/25_150.jpg","f","response","f","true"
"","","","","","html-keyboard-response","206","2.0.0","316452","p4bc8wto6fd","null","<p style=""border: 5px solid green;"">Correct!</p>","null","","",""
"","","","","","html-keyboard-response","207","2.0.0","317455","p4bc8wto6fd","null","<div style=""font-size: 75px;"">+</div>","null","","",""
"","","","","","image-keyboard-response","208","2.0.0","318257","p4bc8wto6fd","800","stimuli/11_0.jpg","f","response","f","true"
"","","","","","html-keyboard-response","209","2.0.0","318759","p4bc8wto6fd","null","<p style=""border: 5px solid green;"">Correct!</p>","null","","",""
"","","","","","html-keyboard-response","210","2.0.0","319762","p4bc8wto6fd","null","<div style=""font-size: 75px;"">+</div>","null","","",""
"","","","","","image-keyboard-response","211","2.0.0","321660","p4bc8wto6fd","1895","stimuli/46_100_R.jpg","j","response","j","true"
"","","","","","html-keyboard-response","212","2.0.0","322161","p4bc8wto6fd","null","<p style=""border: 5px solid green;"">Correct!</p>","null","","",""
"","","","","","html-keyboard-response","213","2.0.0","323164","p4bc8wto6fd","null","<div style=""font-size: 75px;"">+</div>","null","","",""
"","","","","","image-keyboard-response","214","2.0.0","324452","p4bc8wto6fd","1286","stimuli/20_100.jpg","j","response","f","false"
"","","","","","html-keyboard-response","215","2.0.0","324953","p4bc8wto6fd","null","<p style=""border: 5px solid red;"">Incorrect.</p>","null","","",""
"","","","","","html-keyboard-response","216","2.0.0","325956","p4bc8wto6fd","null","<div style=""font-size: 75px;"">+</div>","null","","",""
"","","","","","image-keyboard-response","217","2.0.0","327002","p4bc8wto6fd","1043","stimuli/32_150.jpg","j","response","f","false"
"","","","","","html-keyboard-response","218","2.0.0","327504","p4bc8wto6fd","null","<p style=""border: 5px solid red;"">Incorrect.</p>","null","","",""
"","","","","","html-keyboard-response","219","2.0.0","328507","p4bc8wto6fd","null","<div style=""font-size: 75px;"">+</div>","null","","",""
"","","","","","image-keyboard-response","220","2.0.0","329847","p4bc8wto6fd","1337","stimuli/8_100.jpg","j","response","f","false"
"","","","","","html-keyboard-response","221","2.0.0","330349","p4bc8wto6fd","null","<p style=""border: 5px solid red;"">Incorrect.</p>","null","","",""
"","","","","","html-keyboard-response","222","2.0.0","331352","p4bc8wto6fd","null","<div style=""font-size: 75px;"">+</div>","null","","",""
"","","","","","image-keyboard-response","223","2.0.0","332799","p4bc8wto6fd","1445","stimuli/47_100_R.jpg","j","response","j","true"
"","","","","","html-keyboard-response","224","2.0.0","333302","p4bc8wto6fd","null","<p style=""border: 5px solid green;"">Correct!</p>","null","","",""
"","","","","","html-keyboard-response","225","2.0.0","334305","p4bc8wto6fd","null","<div style=""font-size: 75px;"">+</div>","null","","",""
"","","","","","image-keyboard-response","226","2.0.0","335370","p4bc8wto6fd","1063","stimuli/4_50_R.jpg","j","response","j","true"
"","","","","","html-keyboard-response","227","2.0.0","335872","p4bc8wto6fd","null","<p style=""border: 5px solid green;"">Correct!</p>","null","","",""
"","","","","","html-keyboard-response","228","2.0.0","336875","p4bc8wto6fd","null","<div style=""font-size: 75px;"">+</div>","null","","",""
"","","","","","image-keyboard-response","229","2.0.0","337462","p4bc8wto6fd","585","stimuli/47_150.jpg","f","response","f","true"
"","","","","","html-keyboard-response","230","2.0.0","337964","p4bc8wto6fd","null","<p style=""border: 5px solid green;"">Correct!</p>","null","","",""
"","","","","","html-keyboard-response","231","2.0.0","338967","p4bc8wto6fd","null","<div style=""font-size: 75px;"">+</div>","null","","",""
"","","","","","image-keyboard-response","232","2.0.0","340005","p4bc8wto6fd","1035","stimuli/24_50.jpg","j","response","f","false"
"","","","","","html-keyboard-response","233","2.0.0","340507","p4bc8wto6fd","null","<p style=""border: 5px solid red;"">Incorrect.</p>","null","","",""
"","","","","","html-keyboard-response","234","2.0.0","341510","p4bc8wto6fd","null","<div style=""font-size: 75px;"">+</div>","null","","",""
"","","","","","image-keyboard-response","235","2.0.0","343225","p4bc8wto6fd","1713","stimuli/6_150.jpg","f","response","f","true"
"","","","","","html-keyboard-response","236","2.0.0","343726","p4bc8wto6fd","null","<p style=""border: 5px solid green;"">Correct!</p>","null","","",""
"","","","","","html-keyboard-response","237","2.0.0","344729","p4bc8wto6fd","null","<div style=""font-size: 75px;"">+</div>","null","","",""
"","","","","","image-keyboard-response","238","2.0.0","346179","p4bc8wto6fd","1448","stimuli/24_150_R.jpg","f","response","j","false"
"","","","","","html-keyboard-response","239","2.0.0","346680","p4bc8wto6fd","null","<p style=""border: 5px solid red;"">Incorrect.</p>","null","","",""
"","","","","","html-keyboard-response","240","2.0.0","347682","p4bc8wto6fd","null","<div style=""font-size: 75px;"">+</div>","null","","",""
"","","","","","image-keyboard-response","241","2.0.0","348771","p4bc8wto6fd","1087","stimuli/1_50.jpg","f","response","f","true"
"","","","","","html-keyboard-response","242","2.0.0","349273","p4bc8wto6fd","null","<p style=""border: 5px solid green;"">Correct!</p>","null","","",""
"","","","","","html-keyboard-response","243","2.0.0","350276","p4bc8wto6fd","null","<div style=""font-size: 75px;"">+</div>","null","","",""
"","","","","","image-keyboard-response","244","2.0.0","353178","p4bc8wto6fd","2900","stimuli/34_150_R.jpg","j","response","j","true"
"","","","","","html-keyboard-response","245","2.0.0","353681","p4bc8wto6fd","null","<p style=""border: 5px solid green;"">Correct!</p>","null","","",""
"","","","","","html-keyboard-response","246","2.0.0","354684","p4bc8wto6fd","null","<div style=""font-size: 75px;"">+</div>","null","","",""
"","","","","","image-keyboard-response","247","2.0.0","357573","p4bc8wto6fd","2888","stimuli/35_150_R.jpg","j","response","j","true"
"","","","","","html-keyboard-response","248","2.0.0","358074","p4bc8wto6fd","null","<p style=""border: 5px solid green;"">Correct!</p>","null","","",""
"","","","","","html-keyboard-response","249","2.0.0","359078","p4bc8wto6fd","null","<div style=""font-size: 75px;"">+</div>","null","","",""
"","","","","","image-keyboard-response","250","2.0.0","360880","p4bc8wto6fd","1800","stimuli/37_100.jpg","f","response","f","true"
"","","","","","html-keyboard-response","251","2.0.0","361381","p4bc8wto6fd","null","<p style=""border: 5px solid green;"">Correct!</p>","null","","",""
"","","","","","html-keyboard-response","252","2.0.0","362385","p4bc8wto6fd","null","<div style=""font-size: 75px;"">+</div>","null","","",""
"","","","","","image-keyboard-response","253","2.0.0","363279","p4bc8wto6fd","893","stimuli/26_150_R.jpg","f","response","j","false"
"","","","","","html-keyboard-response","254","2.0.0","363781","p4bc8wto6fd","null","<p style=""border: 5px solid red;"">Incorrect.</p>","null","","",""
"","","","","","html-keyboard-response","255","2.0.0","364785","p4bc8wto6fd","null","<div style=""font-size: 75px;"">+</div>","null","","",""
"","","","","","image-keyboard-response","256","2.0.0","365743","p4bc8wto6fd","955","stimuli/41_150_R.jpg","f","response","j","false"
"","","","","","html-keyboard-response","257","2.0.0","366244","p4bc8wto6fd","null","<p style=""border: 5px solid red;"">Incorrect.</p>","null","","",""
"","","","","","html-keyboard-response","258","2.0.0","367247","p4bc8wto6fd","null","<div style=""font-size: 75px;"">+</div>","null","","",""
"","","","","","image-keyboard-response","259","2.0.0","371908","p4bc8wto6fd","4659","stimuli/1_150_R.jpg","j","response","j","true"
"","","","","","html-keyboard-response","260","2.0.0","372410","p4bc8wto6fd","null","<p style=""border: 5px solid green;"">Correct!</p>","null","","",""
"","","","","","html-keyboard-response","261","2.0.0","373412","p4bc8wto6fd","null","<div style=""font-size: 75px;"">+</div>","null","","",""
"","","","","","image-keyboard-response","262","2.0.0","376370","p4bc8wto6fd","2956","stimuli/27_50.jpg","f","response","f","true"
"","","","","","html-keyboard-response","263","2.0.0","376871","p4bc8wto6fd","null","<p style=""border: 5px solid green;"">Correct!</p>","null","","",""
"","","","","","html-keyboard-response","264","2.0.0","377874","p4bc8wto6fd","null","<div style=""font-size: 75px;"">+</div>","null","","",""
"","","","","","image-keyboard-response","265","2.0.0","379398","p4bc8wto6fd","1522","stimuli/4_100.jpg","f","response","f","true"
"","","","","","html-keyboard-response","266","2.0.0","379901","p4bc8wto6fd","null","<p style=""border: 5px solid green;"">Correct!</p>","null","","",""
"","","","","","html-keyboard-response","267","2.0.0","380903","p4bc8wto6fd","null","<div style=""font-size: 75px;"">+</div>","null","","",""
"","","","","","image-keyboard-response","268","2.0.0","382566","p4bc8wto6fd","1661","stimuli/37_0_R.jpg","j","response","j","true"
"","","","","","html-keyboard-response","269","2.0.0","383068","p4bc8wto6fd","null","<p style=""border: 5px solid green;"">Correct!</p>","null","","",""
"","","","","","html-keyboard-response","270","2.0.0","384070","p4bc8wto6fd","null","<div style=""font-size: 75px;"">+</div>","null","","",""
"","","","","","image-keyboard-response","271","2.0.0","388046","p4bc8wto6fd","3974","stimuli/31_100.jpg","f","response","f","true"
"","","","","","html-keyboard-response","272","2.0.0","388549","p4bc8wto6fd","null","<p style=""border: 5px solid green;"">Correct!</p>","null","","",""
"","","","","","html-keyboard-response","273","2.0.0","389552","p4bc8wto6fd","null","<div style=""font-size: 75px;"">+</div>","null","","",""
"","","","","","image-keyboard-response","274","2.0.0","390771","p4bc8wto6fd","1217","stimuli/19_50.jpg","f","response","f","true"
"","","","","","html-keyboard-response","275","2.0.0","391273","p4bc8wto6fd","null","<p style=""border: 5px solid green;"">Correct!</p>","null","","",""
"","","","","","html-keyboard-response","276","2.0.0","392277","p4bc8wto6fd","null","<div style=""font-size: 75px;"">+</div>","null","","",""
"","","","","","image-keyboard-response","277","2.0.0","394013","p4bc8wto6fd","1734","stimuli/6_150_R.jpg","f","response","j","false"
"","","","","","html-keyboard-response","278","2.0.0","394516","p4bc8wto6fd","null","<p style=""border: 5px solid red;"">Incorrect.</p>","null","","",""
"","","","","","html-keyboard-response","279","2.0.0","395518","p4bc8wto6fd","null","<div style=""font-size: 75px;"">+</div>","null","","",""
"","","","","","image-keyboard-response","280","2.0.0","396100","p4bc8wto6fd","580","stimuli/32_100.jpg","f","response","f","true"
"","","","","","html-keyboard-response","281","2.0.0","396603","p4bc8wto6fd","null","<p style=""border: 5px solid green;"">Correct!</p>","null","","",""
"","","","","","html-keyboard-response","282","2.0.0","397606","p4bc8wto6fd","null","<div style=""font-size: 75px;"">+</div>","null","","",""
"","","","","","image-keyboard-response","283","2.0.0","399009","p4bc8wto6fd","1401","stimuli/15_0_R.jpg","j","response","j","true"
"","","","","","html-keyboard-response","284","2.0.0","399511","p4bc8wto6fd","null","<p style=""border: 5px solid green;"">Correct!</p>","null","","",""
"","","","","","html-keyboard-response","285","2.0.0","400514","p4bc8wto6fd","null","<div style=""font-size: 75px;"">+</div>","null","","",""
"","","","","","image-keyboard-response","286","2.0.0","401605","p4bc8wto6fd","1088","stimuli/25_0.jpg","f","response","f","true"
"","","","","","html-keyboard-response","287","2.0.0","402107","p4bc8wto6fd","null","<p style=""border: 5px solid green;"">Correct!</p>","null","","",""
"","","","","","html-keyboard-response","288","2.0.0","403110","p4bc8wto6fd","null","<div style=""font-size: 75px;"">+</div>","null","","",""
"","","","","","image-keyboard-response","289","2.0.0","404972","p4bc8wto6fd","1860","stimuli/42_100.jpg","f","response","f","true"
"","","","","","html-keyboard-response","290","2.0.0","405475","p4bc8wto6fd","null","<p style=""border: 5px solid green;"">Correct!</p>","null","","",""
"","","","","","html-keyboard-response","291","2.0.0","406477","p4bc8wto6fd","null","<div style=""font-size: 75px;"">+</div>","null","","",""
"","","","","","image-keyboard-response","292","2.0.0","408649","p4bc8wto6fd","2169","stimuli/24_100.jpg","f","response","f","true"
"","","","","","html-keyboard-response","293","2.0.0","409151","p4bc8wto6fd","null","<p style=""border: 5px solid green;"">Correct!</p>","null","","",""
"","","","","","html-keyboard-response","294","2.0.0","410386","p4bc8wto6fd","1234","<p>Thank you for participating!</p><p>Please press space to answer our survey.</p>"," ","","",""
"","","","","","survey-html-form","295","null","472115","p4bc8wto6fd","61723","","{""response_1"":""Clear and lively"",""response_2"":""Moderately clear and lively"",""response_3"":""Dim and vague; flat"",""response_4"":""Dim and vague; flat"",""response_5"":""Moderately clear and lively"",""response_6"":""Moderately clear and lively"",""response_7"":""Clear and lively"",""response_8"":""Moderately clear and lively"",""response_9"":""Moderately clear and lively"",""response_10"":""Moderately clear and lively"",""response_11"":""Clear and lively"",""response_12"":""Clear and lively"",""response_13"":""Dim and vague; flat"",""response_14"":""Clear and lively"",""response_15"":""Clear and lively"",""response_16"":""Dim and vague; flat""}","","",""
"","","","","","survey-html-form","296","null","497115","p4bc8wto6fd","24997","","{""age"":""22"",""gender"":""male"",""education"":""bachelors"",""handedness"":""right"",""vision"":""impaired"",""technical_difficulties"":""No"",""knowledge_check"":""The ability to differentiate angles?""}","","",""
