"success","timeout","failed_images","failed_audio","failed_video","trial_type","trial_index","plugin_version","time_elapsed","random_id","rt","stimulus","response","task","correct_response","correct"
"true","false","[]","[]","[]","preload","0","2.0.0","2541","p598gq2jz0d","","","","","",""
"true","","","","","fullscreen","1","2.0.0","5098","p598gq2jz0d","1553","","","","",""
"","","","","","html-keyboard-response","2","2.0.0","25373","p598gq2jz0d","20272","Welcome to the experiment. Press any key to begin."," ","","",""
"","","","","","survey-text","3","2.0.0","39248","p598gq2jz0d","13870","","{""participant_id"":""gazelle""}","","",""
"","","","","","html-keyboard-response","4","2.0.0","44378","p598gq2jz0d","5128","
        <p>Welcome to the experiment.</p>
        <p>In this task, you will see pairs of images.</p>
        <p>Your job is to determine whether the image on the right is a rotated version of the image on the left.</p>
        <p>Press the <strong>F</strong> key if the images are the same.</p>
        <p>Press the <strong>J</strong> key if the images are different.</p>
        <p>Press any key to begin.</p>
    "," ","","",""
"","","","","","html-keyboard-response","5","2.0.0","45381","p598gq2jz0d","null","<div style=""font-size: 75px;"">+</div>","null","","",""
"","","","","","image-keyboard-response","6","2.0.0","51106","p598gq2jz0d","5720","stimuli/13_100.jpg","f","response","f","true"
"","","","","","html-keyboard-response","7","2.0.0","51609","p598gq2jz0d","null","<p style=""border: 5px solid green;"">Correct!</p>","null","","",""
"","","","","","html-keyboard-response","8","2.0.0","52613","p598gq2jz0d","null","<div style=""font-size: 75px;"">+</div>","null","","",""
"","","","","","image-keyboard-response","9","2.0.0","58901","p598gq2jz0d","6285","stimuli/3_0_R.jpg","j","response","j","true"
"","","","","","html-keyboard-response","10","2.0.0","59403","p598gq2jz0d","null","<p style=""border: 5px solid green;"">Correct!</p>","null","","",""
"","","","","","html-keyboard-response","11","2.0.0","60407","p598gq2jz0d","null","<div style=""font-size: 75px;"">+</div>","null","","",""
"","","","","","image-keyboard-response","12","2.0.0","62303","p598gq2jz0d","1893","stimuli/40_0.jpg","f","response","f","true"
"","","","","","html-keyboard-response","13","2.0.0","62805","p598gq2jz0d","null","<p style=""border: 5px solid green;"">Correct!</p>","null","","",""
"","","","","","html-keyboard-response","14","2.0.0","63808","p598gq2jz0d","null","<div style=""font-size: 75px;"">+</div>","null","","",""
"","","","","","image-keyboard-response","15","2.0.0","66877","p598gq2jz0d","3066","stimuli/18_100_R.jpg","j","response","j","true"
"","","","","","html-keyboard-response","16","2.0.0","67380","p598gq2jz0d","null","<p style=""border: 5px solid green;"">Correct!</p>","null","","",""
"","","","","","html-keyboard-response","17","2.0.0","68383","p598gq2jz0d","null","<div style=""font-size: 75px;"">+</div>","null","","",""
"","","","","","image-keyboard-response","18","2.0.0","69583","p598gq2jz0d","1197","stimuli/6_0.jpg","f","response","f","true"
"","","","","","html-keyboard-response","19","2.0.0","70085","p598gq2jz0d","null","<p style=""border: 5px solid green;"">Correct!</p>","null","","",""
"","","","","","html-keyboard-response","20","2.0.0","71088","p598gq2jz0d","null","<div style=""font-size: 75px;"">+</div>","null","","",""
"","","","","","image-keyboard-response","21","2.0.0","72752","p598gq2jz0d","1661","stimuli/8_50.jpg","f","response","f","true"
"","","","","","html-keyboard-response","22","2.0.0","73253","p598gq2jz0d","null","<p style=""border: 5px solid green;"">Correct!</p>","null","","",""
"","","","","","html-keyboard-response","23","2.0.0","74256","p598gq2jz0d","null","<div style=""font-size: 75px;"">+</div>","null","","",""
"","","","","","image-keyboard-response","24","2.0.0","76201","p598gq2jz0d","1942","stimuli/38_0_R.jpg","j","response","j","true"
"","","","","","html-keyboard-response","25","2.0.0","76703","p598gq2jz0d","null","<p style=""border: 5px solid green;"">Correct!</p>","null","","",""
"","","","","","html-keyboard-response","26","2.0.0","77705","p598gq2jz0d","null","<div style=""font-size: 75px;"">+</div>","null","","",""
"","","","","","image-keyboard-response","27","2.0.0","80439","p598gq2jz0d","2731","stimuli/48_100.jpg","f","response","f","true"
"","","","","","html-keyboard-response","28","2.0.0","80941","p598gq2jz0d","null","<p style=""border: 5px solid green;"">Correct!</p>","null","","",""
"","","","","","html-keyboard-response","29","2.0.0","81944","p598gq2jz0d","null","<div style=""font-size: 75px;"">+</div>","null","","",""
"","","","","","image-keyboard-response","30","2.0.0","83489","p598gq2jz0d","1543","stimuli/41_50_R.jpg","j","response","j","true"
"","","","","","html-keyboard-response","31","2.0.0","83990","p598gq2jz0d","null","<p style=""border: 5px solid green;"">Correct!</p>","null","","",""
"","","","","","html-keyboard-response","32","2.0.0","84992","p598gq2jz0d","null","<div style=""font-size: 75px;"">+</div>","null","","",""
"","","","","","image-keyboard-response","33","2.0.0","87169","p598gq2jz0d","2175","stimuli/25_0.jpg","f","response","f","true"
"","","","","","html-keyboard-response","34","2.0.0","87672","p598gq2jz0d","null","<p style=""border: 5px solid green;"">Correct!</p>","null","","",""
"","","","","","html-keyboard-response","35","2.0.0","88674","p598gq2jz0d","null","<div style=""font-size: 75px;"">+</div>","null","","",""
"","","","","","image-keyboard-response","36","2.0.0","91651","p598gq2jz0d","2975","stimuli/28_150.jpg","f","response","f","true"
"","","","","","html-keyboard-response","37","2.0.0","92152","p598gq2jz0d","null","<p style=""border: 5px solid green;"">Correct!</p>","null","","",""
"","","","","","html-keyboard-response","38","2.0.0","93155","p598gq2jz0d","null","<div style=""font-size: 75px;"">+</div>","null","","",""
"","","","","","image-keyboard-response","39","2.0.0","96763","p598gq2jz0d","3606","stimuli/35_0.jpg","f","response","f","true"
"","","","","","html-keyboard-response","40","2.0.0","97264","p598gq2jz0d","null","<p style=""border: 5px solid green;"">Correct!</p>","null","","",""
"","","","","","html-keyboard-response","41","2.0.0","98267","p598gq2jz0d","null","<div style=""font-size: 75px;"">+</div>","null","","",""
"","","","","","image-keyboard-response","42","2.0.0","103033","p598gq2jz0d","4763","stimuli/10_100_R.jpg","j","response","j","true"
"","","","","","html-keyboard-response","43","2.0.0","103535","p598gq2jz0d","null","<p style=""border: 5px solid green;"">Correct!</p>","null","","",""
"","","","","","html-keyboard-response","44","2.0.0","104538","p598gq2jz0d","null","<div style=""font-size: 75px;"">+</div>","null","","",""
"","","","","","image-keyboard-response","45","2.0.0","109740","p598gq2jz0d","5200","stimuli/9_0_R.jpg","j","response","j","true"
"","","","","","html-keyboard-response","46","2.0.0","110243","p598gq2jz0d","null","<p style=""border: 5px solid green;"">Correct!</p>","null","","",""
"","","","","","html-keyboard-response","47","2.0.0","111245","p598gq2jz0d","null","<div style=""font-size: 75px;"">+</div>","null","","",""
"","","","","","image-keyboard-response","48","2.0.0","112707","p598gq2jz0d","1460","stimuli/14_50_R.jpg","j","response","j","true"
"","","","","","html-keyboard-response","49","2.0.0","113208","p598gq2jz0d","null","<p style=""border: 5px solid green;"">Correct!</p>","null","","",""
"","","","","","html-keyboard-response","50","2.0.0","114212","p598gq2jz0d","null","<div style=""font-size: 75px;"">+</div>","null","","",""
"","","","","","image-keyboard-response","51","2.0.0","1160612","p598gq2jz0d","501950","stimuli/35_100_R.jpg","j","response","j","true"
"","","","","","html-keyboard-response","52","2.0.0","1161114","p598gq2jz0d","null","<p style=""border: 5px solid green;"">Correct!</p>","null","","",""
"","","","","","html-keyboard-response","53","2.0.0","1162116","p598gq2jz0d","null","<div style=""font-size: 75px;"">+</div>","null","","",""
"","","","","","image-keyboard-response","54","2.0.0","1164171","p598gq2jz0d","2053","stimuli/15_50_R.jpg","j","response","j","true"
"","","","","","html-keyboard-response","55","2.0.0","1164673","p598gq2jz0d","null","<p style=""border: 5px solid green;"">Correct!</p>","null","","",""
"","","","","","html-keyboard-response","56","2.0.0","1165676","p598gq2jz0d","null","<div style=""font-size: 75px;"">+</div>","null","","",""
"","","","","","image-keyboard-response","57","2.0.0","1167422","p598gq2jz0d","1744","stimuli/24_50.jpg","f","response","f","true"
"","","","","","html-keyboard-response","58","2.0.0","1167924","p598gq2jz0d","null","<p style=""border: 5px solid green;"">Correct!</p>","null","","",""
"","","","","","html-keyboard-response","59","2.0.0","1168928","p598gq2jz0d","null","<div style=""font-size: 75px;"">+</div>","null","","",""
"","","","","","image-keyboard-response","60","2.0.0","1172433","p598gq2jz0d","3503","stimuli/23_150.jpg","f","response","f","true"
"","","","","","html-keyboard-response","61","2.0.0","1172934","p598gq2jz0d","null","<p style=""border: 5px solid green;"">Correct!</p>","null","","",""
"","","","","","html-keyboard-response","62","2.0.0","1173936","p598gq2jz0d","null","<div style=""font-size: 75px;"">+</div>","null","","",""
"","","","","","image-keyboard-response","63","2.0.0","1177026","p598gq2jz0d","3088","stimuli/31_100_R.jpg","j","response","j","true"
"","","","","","html-keyboard-response","64","2.0.0","1177528","p598gq2jz0d","null","<p style=""border: 5px solid green;"">Correct!</p>","null","","",""
"","","","","","html-keyboard-response","65","2.0.0","1178531","p598gq2jz0d","null","<div style=""font-size: 75px;"">+</div>","null","","",""
"","","","","","image-keyboard-response","66","2.0.0","1179964","p598gq2jz0d","1431","stimuli/1_50.jpg","f","response","f","true"
"","","","","","html-keyboard-response","67","2.0.0","1180465","p598gq2jz0d","null","<p style=""border: 5px solid green;"">Correct!</p>","null","","",""
"","","","","","html-keyboard-response","68","2.0.0","1181469","p598gq2jz0d","null","<div style=""font-size: 75px;"">+</div>","null","","",""
"","","","","","image-keyboard-response","69","2.0.0","1183725","p598gq2jz0d","2255","stimuli/35_150_R.jpg","j","response","j","true"
"","","","","","html-keyboard-response","70","2.0.0","1184227","p598gq2jz0d","null","<p style=""border: 5px solid green;"">Correct!</p>","null","","",""
"","","","","","html-keyboard-response","71","2.0.0","1185230","p598gq2jz0d","null","<div style=""font-size: 75px;"">+</div>","null","","",""
"","","","","","image-keyboard-response","72","2.0.0","1186950","p598gq2jz0d","1717","stimuli/34_0.jpg","f","response","f","true"
"","","","","","html-keyboard-response","73","2.0.0","1187000","p598gq2jz0d","49","<p style=""border: 5px solid green;"">Correct!</p>","f","","",""
"","","","","","html-keyboard-response","74","2.0.0","1188003","p598gq2jz0d","null","<div style=""font-size: 75px;"">+</div>","null","","",""
"","","","","","image-keyboard-response","75","2.0.0","1191526","p598gq2jz0d","3522","stimuli/12_0_R.jpg","j","response","j","true"
"","","","","","html-keyboard-response","76","2.0.0","1192029","p598gq2jz0d","null","<p style=""border: 5px solid green;"">Correct!</p>","null","","",""
"","","","","","html-keyboard-response","77","2.0.0","1193031","p598gq2jz0d","null","<div style=""font-size: 75px;"">+</div>","null","","",""
"","","","","","image-keyboard-response","78","2.0.0","1194818","p598gq2jz0d","1785","stimuli/32_50.jpg","f","response","f","true"
"","","","","","html-keyboard-response","79","2.0.0","1195321","p598gq2jz0d","null","<p style=""border: 5px solid green;"">Correct!</p>","null","","",""
"","","","","","html-keyboard-response","80","2.0.0","1196324","p598gq2jz0d","null","<div style=""font-size: 75px;"">+</div>","null","","",""
"","","","","","image-keyboard-response","81","2.0.0","1197720","p598gq2jz0d","1394","stimuli/47_150_R.jpg","j","response","j","true"
"","","","","","html-keyboard-response","82","2.0.0","1198221","p598gq2jz0d","null","<p style=""border: 5px solid green;"">Correct!</p>","null","","",""
"","","","","","html-keyboard-response","83","2.0.0","1199223","p598gq2jz0d","null","<div style=""font-size: 75px;"">+</div>","null","","",""
"","","","","","image-keyboard-response","84","2.0.0","1201424","p598gq2jz0d","2199","stimuli/42_0_R.jpg","j","response","j","true"
"","","","","","html-keyboard-response","85","2.0.0","1201926","p598gq2jz0d","null","<p style=""border: 5px solid green;"">Correct!</p>","null","","",""
"","","","","","html-keyboard-response","86","2.0.0","1202930","p598gq2jz0d","null","<div style=""font-size: 75px;"">+</div>","null","","",""
"","","","","","image-keyboard-response","87","2.0.0","1207225","p598gq2jz0d","4294","stimuli/48_150.jpg","f","response","f","true"
"","","","","","html-keyboard-response","88","2.0.0","1207728","p598gq2jz0d","null","<p style=""border: 5px solid green;"">Correct!</p>","null","","",""
"","","","","","html-keyboard-response","89","2.0.0","1208731","p598gq2jz0d","null","<div style=""font-size: 75px;"">+</div>","null","","",""
"","","","","","image-keyboard-response","90","2.0.0","1212063","p598gq2jz0d","3331","stimuli/44_0_R.jpg","j","response","j","true"
"","","","","","html-keyboard-response","91","2.0.0","1212565","p598gq2jz0d","null","<p style=""border: 5px solid green;"">Correct!</p>","null","","",""
"","","","","","html-keyboard-response","92","2.0.0","1213568","p598gq2jz0d","null","<div style=""font-size: 75px;"">+</div>","null","","",""
"","","","","","image-keyboard-response","93","2.0.0","1219064","p598gq2jz0d","5495","stimuli/15_150.jpg","f","response","f","true"
"","","","","","html-keyboard-response","94","2.0.0","1219566","p598gq2jz0d","null","<p style=""border: 5px solid green;"">Correct!</p>","null","","",""
"","","","","","html-keyboard-response","95","2.0.0","1220569","p598gq2jz0d","null","<div style=""font-size: 75px;"">+</div>","null","","",""
"","","","","","image-keyboard-response","96","2.0.0","1223509","p598gq2jz0d","2938","stimuli/30_100.jpg","f","response","f","true"
"","","","","","html-keyboard-response","97","2.0.0","1224010","p598gq2jz0d","null","<p style=""border: 5px solid green;"">Correct!</p>","null","","",""
"","","","","","html-keyboard-response","98","2.0.0","1225013","p598gq2jz0d","null","<div style=""font-size: 75px;"">+</div>","null","","",""
"","","","","","image-keyboard-response","99","2.0.0","1227042","p598gq2jz0d","2027","stimuli/37_100_R.jpg","j","response","j","true"
"","","","","","html-keyboard-response","100","2.0.0","1227543","p598gq2jz0d","null","<p style=""border: 5px solid green;"">Correct!</p>","null","","",""
"","","","","","html-keyboard-response","101","2.0.0","1228547","p598gq2jz0d","null","<div style=""font-size: 75px;"">+</div>","null","","",""
"","","","","","image-keyboard-response","102","2.0.0","1230838","p598gq2jz0d","2290","stimuli/47_100_R.jpg","j","response","j","true"
"","","","","","html-keyboard-response","103","2.0.0","1231340","p598gq2jz0d","null","<p style=""border: 5px solid green;"">Correct!</p>","null","","",""
"","","","","","html-keyboard-response","104","2.0.0","1232343","p598gq2jz0d","null","<div style=""font-size: 75px;"">+</div>","null","","",""
"","","","","","image-keyboard-response","105","2.0.0","1234050","p598gq2jz0d","1706","stimuli/15_150_R.jpg","f","response","j","false"
"","","","","","html-keyboard-response","106","2.0.0","1234552","p598gq2jz0d","null","<p style=""border: 5px solid red;"">Incorrect.</p>","null","","",""
"","","","","","html-keyboard-response","107","2.0.0","1235555","p598gq2jz0d","null","<div style=""font-size: 75px;"">+</div>","null","","",""
"","","","","","image-keyboard-response","108","2.0.0","1238196","p598gq2jz0d","2640","stimuli/18_150.jpg","f","response","f","true"
"","","","","","html-keyboard-response","109","2.0.0","1238698","p598gq2jz0d","null","<p style=""border: 5px solid green;"">Correct!</p>","null","","",""
"","","","","","html-keyboard-response","110","2.0.0","1239701","p598gq2jz0d","null","<div style=""font-size: 75px;"">+</div>","null","","",""
"","","","","","image-keyboard-response","111","2.0.0","1242587","p598gq2jz0d","2884","stimuli/40_50.jpg","j","response","f","false"
"","","","","","html-keyboard-response","112","2.0.0","1243089","p598gq2jz0d","null","<p style=""border: 5px solid red;"">Incorrect.</p>","null","","",""
"","","","","","html-keyboard-response","113","2.0.0","1244092","p598gq2jz0d","null","<div style=""font-size: 75px;"">+</div>","null","","",""
"","","","","","image-keyboard-response","114","2.0.0","1245998","p598gq2jz0d","1905","stimuli/27_0.jpg","f","response","f","true"
"","","","","","html-keyboard-response","115","2.0.0","1246500","p598gq2jz0d","null","<p style=""border: 5px solid green;"">Correct!</p>","null","","",""
"","","","","","html-keyboard-response","116","2.0.0","1247503","p598gq2jz0d","null","<div style=""font-size: 75px;"">+</div>","null","","",""
"","","","","","image-keyboard-response","117","2.0.0","1251384","p598gq2jz0d","3879","stimuli/20_0_R.jpg","j","response","j","true"
"","","","","","html-keyboard-response","118","2.0.0","1251886","p598gq2jz0d","null","<p style=""border: 5px solid green;"">Correct!</p>","null","","",""
"","","","","","html-keyboard-response","119","2.0.0","1252889","p598gq2jz0d","null","<div style=""font-size: 75px;"">+</div>","null","","",""
"","","","","","image-keyboard-response","120","2.0.0","1255388","p598gq2jz0d","2498","stimuli/40_150.jpg","f","response","f","true"
"","","","","","html-keyboard-response","121","2.0.0","1255891","p598gq2jz0d","null","<p style=""border: 5px solid green;"">Correct!</p>","null","","",""
"","","","","","html-keyboard-response","122","2.0.0","1256894","p598gq2jz0d","null","<div style=""font-size: 75px;"">+</div>","null","","",""
"","","","","","image-keyboard-response","123","2.0.0","1260481","p598gq2jz0d","3586","stimuli/30_150.jpg","f","response","f","true"
"","","","","","html-keyboard-response","124","2.0.0","1260984","p598gq2jz0d","null","<p style=""border: 5px solid green;"">Correct!</p>","null","","",""
"","","","","","html-keyboard-response","125","2.0.0","1261987","p598gq2jz0d","null","<div style=""font-size: 75px;"">+</div>","null","","",""
"","","","","","image-keyboard-response","126","2.0.0","1266496","p598gq2jz0d","4508","stimuli/30_50.jpg","f","response","f","true"
"","","","","","html-keyboard-response","127","2.0.0","1266998","p598gq2jz0d","null","<p style=""border: 5px solid green;"">Correct!</p>","null","","",""
"","","","","","html-keyboard-response","128","2.0.0","1268001","p598gq2jz0d","null","<div style=""font-size: 75px;"">+</div>","null","","",""
"","","","","","image-keyboard-response","129","2.0.0","1271096","p598gq2jz0d","3094","stimuli/3_100.jpg","f","response","f","true"
"","","","","","html-keyboard-response","130","2.0.0","1271598","p598gq2jz0d","null","<p style=""border: 5px solid green;"">Correct!</p>","null","","",""
"","","","","","html-keyboard-response","131","2.0.0","1272600","p598gq2jz0d","null","<div style=""font-size: 75px;"">+</div>","null","","",""
"","","","","","image-keyboard-response","132","2.0.0","1284854","p598gq2jz0d","12253","stimuli/13_100_R.jpg","j","response","j","true"
"","","","","","html-keyboard-response","133","2.0.0","1285356","p598gq2jz0d","null","<p style=""border: 5px solid green;"">Correct!</p>","null","","",""
"","","","","","html-keyboard-response","134","2.0.0","1286359","p598gq2jz0d","null","<div style=""font-size: 75px;"">+</div>","null","","",""
"","","","","","image-keyboard-response","135","2.0.0","1291512","p598gq2jz0d","5151","stimuli/40_50_R.jpg","j","response","j","true"
"","","","","","html-keyboard-response","136","2.0.0","1292013","p598gq2jz0d","null","<p style=""border: 5px solid green;"">Correct!</p>","null","","",""
"","","","","","html-keyboard-response","137","2.0.0","1293016","p598gq2jz0d","null","<div style=""font-size: 75px;"">+</div>","null","","",""
"","","","","","image-keyboard-response","138","2.0.0","1295681","p598gq2jz0d","2663","stimuli/8_50_R.jpg","j","response","j","true"
"","","","","","html-keyboard-response","139","2.0.0","1296182","p598gq2jz0d","null","<p style=""border: 5px solid green;"">Correct!</p>","null","","",""
"","","","","","html-keyboard-response","140","2.0.0","1297185","p598gq2jz0d","null","<div style=""font-size: 75px;"">+</div>","null","","",""
"","","","","","image-keyboard-response","141","2.0.0","1299427","p598gq2jz0d","2240","stimuli/31_50_R.jpg","j","response","j","true"
"","","","","","html-keyboard-response","142","2.0.0","1299929","p598gq2jz0d","null","<p style=""border: 5px solid green;"">Correct!</p>","null","","",""
"","","","","","html-keyboard-response","143","2.0.0","1300932","p598gq2jz0d","null","<div style=""font-size: 75px;"">+</div>","null","","",""
"","","","","","image-keyboard-response","144","2.0.0","1302665","p598gq2jz0d","1732","stimuli/29_0.jpg","f","response","f","true"
"","","","","","html-keyboard-response","145","2.0.0","1303168","p598gq2jz0d","null","<p style=""border: 5px solid green;"">Correct!</p>","null","","",""
"","","","","","html-keyboard-response","146","2.0.0","1304170","p598gq2jz0d","null","<div style=""font-size: 75px;"">+</div>","null","","",""
"","","","","","image-keyboard-response","147","2.0.0","1307701","p598gq2jz0d","3530","stimuli/26_100_R.jpg","j","response","j","true"
"","","","","","html-keyboard-response","148","2.0.0","1308204","p598gq2jz0d","null","<p style=""border: 5px solid green;"">Correct!</p>","null","","",""
"","","","","","html-keyboard-response","149","2.0.0","1338207","p598gq2jz0d","null","<p> Take a break! Experiment continues in 30 seconds . </p>","null","","",""
"","","","","","html-keyboard-response","150","2.0.0","1339210","p598gq2jz0d","null","<div style=""font-size: 75px;"">+</div>","null","","",""
"","","","","","image-keyboard-response","151","2.0.0","1342117","p598gq2jz0d","2906","stimuli/33_50_R.jpg","j","response","j","true"
"","","","","","html-keyboard-response","152","2.0.0","1342619","p598gq2jz0d","null","<p style=""border: 5px solid green;"">Correct!</p>","null","","",""
"","","","","","html-keyboard-response","153","2.0.0","1343622","p598gq2jz0d","null","<div style=""font-size: 75px;"">+</div>","null","","",""
"","","","","","image-keyboard-response","154","2.0.0","1346417","p598gq2jz0d","2793","stimuli/27_50.jpg","f","response","f","true"
"","","","","","html-keyboard-response","155","2.0.0","1346919","p598gq2jz0d","null","<p style=""border: 5px solid green;"">Correct!</p>","null","","",""
"","","","","","html-keyboard-response","156","2.0.0","1347922","p598gq2jz0d","null","<div style=""font-size: 75px;"">+</div>","null","","",""
"","","","","","image-keyboard-response","157","2.0.0","1350621","p598gq2jz0d","2697","stimuli/16_150_R.jpg","j","response","j","true"
"","","","","","html-keyboard-response","158","2.0.0","1351122","p598gq2jz0d","null","<p style=""border: 5px solid green;"">Correct!</p>","null","","",""
"","","","","","html-keyboard-response","159","2.0.0","1352125","p598gq2jz0d","null","<div style=""font-size: 75px;"">+</div>","null","","",""
"","","","","","image-keyboard-response","160","2.0.0","1355789","p598gq2jz0d","3663","stimuli/12_100.jpg","f","response","f","true"
"","","","","","html-keyboard-response","161","2.0.0","1356292","p598gq2jz0d","null","<p style=""border: 5px solid green;"">Correct!</p>","null","","",""
"","","","","","html-keyboard-response","162","2.0.0","1357295","p598gq2jz0d","null","<div style=""font-size: 75px;"">+</div>","null","","",""
"","","","","","image-keyboard-response","163","2.0.0","1359452","p598gq2jz0d","2156","stimuli/13_50_R.jpg","j","response","j","true"
"","","","","","html-keyboard-response","164","2.0.0","1359954","p598gq2jz0d","null","<p style=""border: 5px solid green;"">Correct!</p>","null","","",""
"","","","","","html-keyboard-response","165","2.0.0","1360957","p598gq2jz0d","null","<div style=""font-size: 75px;"">+</div>","null","","",""
"","","","","","image-keyboard-response","166","2.0.0","1362420","p598gq2jz0d","1461","stimuli/16_0_R.jpg","j","response","j","true"
"","","","","","html-keyboard-response","167","2.0.0","1362922","p598gq2jz0d","null","<p style=""border: 5px solid green;"">Correct!</p>","null","","",""
"","","","","","html-keyboard-response","168","2.0.0","1363924","p598gq2jz0d","null","<div style=""font-size: 75px;"">+</div>","null","","",""
"","","","","","image-keyboard-response","169","2.0.0","1365670","p598gq2jz0d","1745","stimuli/44_100.jpg","f","response","f","true"
"","","","","","html-keyboard-response","170","2.0.0","1366172","p598gq2jz0d","null","<p style=""border: 5px solid green;"">Correct!</p>","null","","",""
"","","","","","html-keyboard-response","171","2.0.0","1367175","p598gq2jz0d","null","<div style=""font-size: 75px;"">+</div>","null","","",""
"","","","","","image-keyboard-response","172","2.0.0","1370031","p598gq2jz0d","2854","stimuli/19_150.jpg","f","response","f","true"
"","","","","","html-keyboard-response","173","2.0.0","1370533","p598gq2jz0d","null","<p style=""border: 5px solid green;"">Correct!</p>","null","","",""
"","","","","","html-keyboard-response","174","2.0.0","1371535","p598gq2jz0d","null","<div style=""font-size: 75px;"">+</div>","null","","",""
"","","","","","image-keyboard-response","175","2.0.0","1373395","p598gq2jz0d","1859","stimuli/22_150.jpg","f","response","f","true"
"","","","","","html-keyboard-response","176","2.0.0","1373897","p598gq2jz0d","null","<p style=""border: 5px solid green;"">Correct!</p>","null","","",""
"","","","","","html-keyboard-response","177","2.0.0","1374900","p598gq2jz0d","null","<div style=""font-size: 75px;"">+</div>","null","","",""
"","","","","","image-keyboard-response","178","2.0.0","1375859","p598gq2jz0d","957","stimuli/11_0.jpg","f","response","f","true"
"","","","","","html-keyboard-response","179","2.0.0","1376361","p598gq2jz0d","null","<p style=""border: 5px solid green;"">Correct!</p>","null","","",""
"","","","","","html-keyboard-response","180","2.0.0","1377364","p598gq2jz0d","null","<div style=""font-size: 75px;"">+</div>","null","","",""
"","","","","","image-keyboard-response","181","2.0.0","1380697","p598gq2jz0d","3332","stimuli/43_100_R.jpg","j","response","j","true"
"","","","","","html-keyboard-response","182","2.0.0","1381199","p598gq2jz0d","null","<p style=""border: 5px solid green;"">Correct!</p>","null","","",""
"","","","","","html-keyboard-response","183","2.0.0","1382202","p598gq2jz0d","null","<div style=""font-size: 75px;"">+</div>","null","","",""
"","","","","","image-keyboard-response","184","2.0.0","1385691","p598gq2jz0d","3488","stimuli/10_150_R.jpg","j","response","j","true"
"","","","","","html-keyboard-response","185","2.0.0","1386192","p598gq2jz0d","null","<p style=""border: 5px solid green;"">Correct!</p>","null","","",""
"","","","","","html-keyboard-response","186","2.0.0","1387195","p598gq2jz0d","null","<div style=""font-size: 75px;"">+</div>","null","","",""
"","","","","","image-keyboard-response","187","2.0.0","1389513","p598gq2jz0d","2317","stimuli/7_150.jpg","f","response","f","true"
"","","","","","html-keyboard-response","188","2.0.0","1390015","p598gq2jz0d","null","<p style=""border: 5px solid green;"">Correct!</p>","null","","",""
"","","","","","html-keyboard-response","189","2.0.0","1391016","p598gq2jz0d","null","<div style=""font-size: 75px;"">+</div>","null","","",""
"","","","","","image-keyboard-response","190","2.0.0","1392808","p598gq2jz0d","1790","stimuli/18_0_R.jpg","j","response","j","true"
"","","","","","html-keyboard-response","191","2.0.0","1393310","p598gq2jz0d","null","<p style=""border: 5px solid green;"">Correct!</p>","null","","",""
"","","","","","html-keyboard-response","192","2.0.0","1394312","p598gq2jz0d","null","<div style=""font-size: 75px;"">+</div>","null","","",""
"","","","","","image-keyboard-response","193","2.0.0","1395520","p598gq2jz0d","1206","stimuli/21_50.jpg","f","response","f","true"
"","","","","","html-keyboard-response","194","2.0.0","1396021","p598gq2jz0d","null","<p style=""border: 5px solid green;"">Correct!</p>","null","","",""
"","","","","","html-keyboard-response","195","2.0.0","1397023","p598gq2jz0d","null","<div style=""font-size: 75px;"">+</div>","null","","",""
"","","","","","image-keyboard-response","196","2.0.0","1397878","p598gq2jz0d","854","stimuli/21_0.jpg","f","response","f","true"
"","","","","","html-keyboard-response","197","2.0.0","1398380","p598gq2jz0d","null","<p style=""border: 5px solid green;"">Correct!</p>","null","","",""
"","","","","","html-keyboard-response","198","2.0.0","1399383","p598gq2jz0d","null","<div style=""font-size: 75px;"">+</div>","null","","",""
"","","","","","image-keyboard-response","199","2.0.0","1400689","p598gq2jz0d","1305","stimuli/14_50.jpg","f","response","f","true"
"","","","","","html-keyboard-response","200","2.0.0","1401190","p598gq2jz0d","null","<p style=""border: 5px solid green;"">Correct!</p>","null","","",""
"","","","","","html-keyboard-response","201","2.0.0","1402192","p598gq2jz0d","null","<div style=""font-size: 75px;"">+</div>","null","","",""
"","","","","","image-keyboard-response","202","2.0.0","1403328","p598gq2jz0d","1134","stimuli/10_0.jpg","f","response","f","true"
"","","","","","html-keyboard-response","203","2.0.0","1403829","p598gq2jz0d","null","<p style=""border: 5px solid green;"">Correct!</p>","null","","",""
"","","","","","html-keyboard-response","204","2.0.0","1404831","p598gq2jz0d","null","<div style=""font-size: 75px;"">+</div>","null","","",""
"","","","","","image-keyboard-response","205","2.0.0","1406995","p598gq2jz0d","2163","stimuli/1_150_R.jpg","j","response","j","true"
"","","","","","html-keyboard-response","206","2.0.0","1407497","p598gq2jz0d","null","<p style=""border: 5px solid green;"">Correct!</p>","null","","",""
"","","","","","html-keyboard-response","207","2.0.0","1408499","p598gq2jz0d","null","<div style=""font-size: 75px;"">+</div>","null","","",""
"","","","","","image-keyboard-response","208","2.0.0","1409670","p598gq2jz0d","1170","stimuli/21_50_R.jpg","f","response","j","false"
"","","","","","html-keyboard-response","209","2.0.0","1410172","p598gq2jz0d","null","<p style=""border: 5px solid red;"">Incorrect.</p>","null","","",""
"","","","","","html-keyboard-response","210","2.0.0","1411174","p598gq2jz0d","null","<div style=""font-size: 75px;"">+</div>","null","","",""
"","","","","","image-keyboard-response","211","2.0.0","1412424","p598gq2jz0d","1248","stimuli/19_100.jpg","f","response","f","true"
"","","","","","html-keyboard-response","212","2.0.0","1412926","p598gq2jz0d","null","<p style=""border: 5px solid green;"">Correct!</p>","null","","",""
"","","","","","html-keyboard-response","213","2.0.0","1413928","p598gq2jz0d","null","<div style=""font-size: 75px;"">+</div>","null","","",""
"","","","","","image-keyboard-response","214","2.0.0","1415260","p598gq2jz0d","1330","stimuli/15_100.jpg","f","response","f","true"
"","","","","","html-keyboard-response","215","2.0.0","1415762","p598gq2jz0d","null","<p style=""border: 5px solid green;"">Correct!</p>","null","","",""
"","","","","","html-keyboard-response","216","2.0.0","1416765","p598gq2jz0d","null","<div style=""font-size: 75px;"">+</div>","null","","",""
"","","","","","image-keyboard-response","217","2.0.0","1419593","p598gq2jz0d","2826","stimuli/29_100.jpg","f","response","f","true"
"","","","","","html-keyboard-response","218","2.0.0","1420095","p598gq2jz0d","null","<p style=""border: 5px solid green;"">Correct!</p>","null","","",""
"","","","","","html-keyboard-response","219","2.0.0","1421098","p598gq2jz0d","null","<div style=""font-size: 75px;"">+</div>","null","","",""
"","","","","","image-keyboard-response","220","2.0.0","1424796","p598gq2jz0d","3697","stimuli/36_150_R.jpg","j","response","j","true"
"","","","","","html-keyboard-response","221","2.0.0","1425298","p598gq2jz0d","null","<p style=""border: 5px solid green;"">Correct!</p>","null","","",""
"","","","","","html-keyboard-response","222","2.0.0","1426301","p598gq2jz0d","null","<div style=""font-size: 75px;"">+</div>","null","","",""
"","","","","","image-keyboard-response","223","2.0.0","1429069","p598gq2jz0d","2766","stimuli/7_50_R.jpg","j","response","j","true"
"","","","","","html-keyboard-response","224","2.0.0","1429571","p598gq2jz0d","null","<p style=""border: 5px solid green;"">Correct!</p>","null","","",""
"","","","","","html-keyboard-response","225","2.0.0","1430574","p598gq2jz0d","null","<div style=""font-size: 75px;"">+</div>","null","","",""
"","","","","","image-keyboard-response","226","2.0.0","1432165","p598gq2jz0d","1589","stimuli/2_50_R.jpg","j","response","j","true"
"","","","","","html-keyboard-response","227","2.0.0","1432667","p598gq2jz0d","null","<p style=""border: 5px solid green;"">Correct!</p>","null","","",""
"","","","","","html-keyboard-response","228","2.0.0","1433670","p598gq2jz0d","null","<div style=""font-size: 75px;"">+</div>","null","","",""
"","","","","","image-keyboard-response","229","2.0.0","1434965","p598gq2jz0d","1293","stimuli/14_0_R.jpg","j","response","j","true"
"","","","","","html-keyboard-response","230","2.0.0","1435467","p598gq2jz0d","null","<p style=""border: 5px solid green;"">Correct!</p>","null","","",""
"","","","","","html-keyboard-response","231","2.0.0","1436471","p598gq2jz0d","null","<div style=""font-size: 75px;"">+</div>","null","","",""
"","","","","","image-keyboard-response","232","2.0.0","1440971","p598gq2jz0d","4499","stimuli/35_100.jpg","f","response","f","true"
"","","","","","html-keyboard-response","233","2.0.0","1441473","p598gq2jz0d","null","<p style=""border: 5px solid green;"">Correct!</p>","null","","",""
"","","","","","html-keyboard-response","234","2.0.0","1442476","p598gq2jz0d","null","<div style=""font-size: 75px;"">+</div>","null","","",""
"","","","","","image-keyboard-response","235","2.0.0","1446875","p598gq2jz0d","4398","stimuli/12_100_R.jpg","j","response","j","true"
"","","","","","html-keyboard-response","236","2.0.0","1447377","p598gq2jz0d","null","<p style=""border: 5px solid green;"">Correct!</p>","null","","",""
"","","","","","html-keyboard-response","237","2.0.0","1448381","p598gq2jz0d","null","<div style=""font-size: 75px;"">+</div>","null","","",""
"","","","","","image-keyboard-response","238","2.0.0","1449665","p598gq2jz0d","1283","stimuli/2_50.jpg","f","response","f","true"
"","","","","","html-keyboard-response","239","2.0.0","1450167","p598gq2jz0d","null","<p style=""border: 5px solid green;"">Correct!</p>","null","","",""
"","","","","","html-keyboard-response","240","2.0.0","1451170","p598gq2jz0d","null","<div style=""font-size: 75px;"">+</div>","null","","",""
"","","","","","image-keyboard-response","241","2.0.0","1454149","p598gq2jz0d","2977","stimuli/36_100.jpg","f","response","f","true"
"","","","","","html-keyboard-response","242","2.0.0","1454650","p598gq2jz0d","null","<p style=""border: 5px solid green;"">Correct!</p>","null","","",""
"","","","","","html-keyboard-response","243","2.0.0","1455653","p598gq2jz0d","null","<div style=""font-size: 75px;"">+</div>","null","","",""
"","","","","","image-keyboard-response","244","2.0.0","1457272","p598gq2jz0d","1617","stimuli/32_50_R.jpg","j","response","j","true"
"","","","","","html-keyboard-response","245","2.0.0","1457774","p598gq2jz0d","null","<p style=""border: 5px solid green;"">Correct!</p>","null","","",""
"","","","","","html-keyboard-response","246","2.0.0","1458775","p598gq2jz0d","null","<div style=""font-size: 75px;"">+</div>","null","","",""
"","","","","","image-keyboard-response","247","2.0.0","1462457","p598gq2jz0d","3681","stimuli/25_100_R.jpg","j","response","j","true"
"","","","","","html-keyboard-response","248","2.0.0","1462960","p598gq2jz0d","null","<p style=""border: 5px solid green;"">Correct!</p>","null","","",""
"","","","","","html-keyboard-response","249","2.0.0","1463963","p598gq2jz0d","null","<div style=""font-size: 75px;"">+</div>","null","","",""
"","","","","","image-keyboard-response","250","2.0.0","1467372","p598gq2jz0d","3407","stimuli/24_150_R.jpg","j","response","j","true"
"","","","","","html-keyboard-response","251","2.0.0","1467874","p598gq2jz0d","null","<p style=""border: 5px solid green;"">Correct!</p>","null","","",""
"","","","","","html-keyboard-response","252","2.0.0","1468877","p598gq2jz0d","null","<div style=""font-size: 75px;"">+</div>","null","","",""
"","","","","","image-keyboard-response","253","2.0.0","1470518","p598gq2jz0d","1640","stimuli/3_50.jpg","f","response","f","true"
"","","","","","html-keyboard-response","254","2.0.0","1471019","p598gq2jz0d","null","<p style=""border: 5px solid green;"">Correct!</p>","null","","",""
"","","","","","html-keyboard-response","255","2.0.0","1472022","p598gq2jz0d","null","<div style=""font-size: 75px;"">+</div>","null","","",""
"","","","","","image-keyboard-response","256","2.0.0","1474330","p598gq2jz0d","2306","stimuli/25_150_R.jpg","j","response","j","true"
"","","","","","html-keyboard-response","257","2.0.0","1474833","p598gq2jz0d","null","<p style=""border: 5px solid green;"">Correct!</p>","null","","",""
"","","","","","html-keyboard-response","258","2.0.0","1475836","p598gq2jz0d","null","<div style=""font-size: 75px;"">+</div>","null","","",""
"","","","","","image-keyboard-response","259","2.0.0","1477901","p598gq2jz0d","2063","stimuli/9_100.jpg","f","response","f","true"
"","","","","","html-keyboard-response","260","2.0.0","1478402","p598gq2jz0d","null","<p style=""border: 5px solid green;"">Correct!</p>","null","","",""
"","","","","","html-keyboard-response","261","2.0.0","1479405","p598gq2jz0d","null","<div style=""font-size: 75px;"">+</div>","null","","",""
"","","","","","image-keyboard-response","262","2.0.0","1480496","p598gq2jz0d","1090","stimuli/15_0.jpg","f","response","f","true"
"","","","","","html-keyboard-response","263","2.0.0","1480998","p598gq2jz0d","null","<p style=""border: 5px solid green;"">Correct!</p>","null","","",""
"","","","","","html-keyboard-response","264","2.0.0","1482001","p598gq2jz0d","null","<div style=""font-size: 75px;"">+</div>","null","","",""
"","","","","","image-keyboard-response","265","2.0.0","1483844","p598gq2jz0d","1842","stimuli/22_150_R.jpg","j","response","j","true"
"","","","","","html-keyboard-response","266","2.0.0","1484347","p598gq2jz0d","null","<p style=""border: 5px solid green;"">Correct!</p>","null","","",""
"","","","","","html-keyboard-response","267","2.0.0","1485350","p598gq2jz0d","null","<div style=""font-size: 75px;"">+</div>","null","","",""
"","","","","","image-keyboard-response","268","2.0.0","1486790","p598gq2jz0d","1439","stimuli/21_150.jpg","f","response","f","true"
"","","","","","html-keyboard-response","269","2.0.0","1487292","p598gq2jz0d","null","<p style=""border: 5px solid green;"">Correct!</p>","null","","",""
"","","","","","html-keyboard-response","270","2.0.0","1488295","p598gq2jz0d","null","<div style=""font-size: 75px;"">+</div>","null","","",""
"","","","","","image-keyboard-response","271","2.0.0","1492551","p598gq2jz0d","4255","stimuli/34_150_R.jpg","j","response","j","true"
"","","","","","html-keyboard-response","272","2.0.0","1493053","p598gq2jz0d","null","<p style=""border: 5px solid green;"">Correct!</p>","null","","",""
"","","","","","html-keyboard-response","273","2.0.0","1494056","p598gq2jz0d","null","<div style=""font-size: 75px;"">+</div>","null","","",""
"","","","","","image-keyboard-response","274","2.0.0","1495775","p598gq2jz0d","1717","stimuli/43_0_R.jpg","j","response","j","true"
"","","","","","html-keyboard-response","275","2.0.0","1496277","p598gq2jz0d","null","<p style=""border: 5px solid green;"">Correct!</p>","null","","",""
"","","","","","html-keyboard-response","276","2.0.0","1497280","p598gq2jz0d","null","<div style=""font-size: 75px;"">+</div>","null","","",""
"","","","","","image-keyboard-response","277","2.0.0","1499950","p598gq2jz0d","2668","stimuli/3_100_R.jpg","j","response","j","true"
"","","","","","html-keyboard-response","278","2.0.0","1500451","p598gq2jz0d","null","<p style=""border: 5px solid green;"">Correct!</p>","null","","",""
"","","","","","html-keyboard-response","279","2.0.0","1501453","p598gq2jz0d","null","<div style=""font-size: 75px;"">+</div>","null","","",""
"","","","","","image-keyboard-response","280","2.0.0","1502848","p598gq2jz0d","1393","stimuli/23_0_R.jpg","j","response","j","true"
"","","","","","html-keyboard-response","281","2.0.0","1503351","p598gq2jz0d","null","<p style=""border: 5px solid green;"">Correct!</p>","null","","",""
"","","","","","html-keyboard-response","282","2.0.0","1504355","p598gq2jz0d","null","<div style=""font-size: 75px;"">+</div>","null","","",""
"","","","","","image-keyboard-response","283","2.0.0","1505483","p598gq2jz0d","1126","stimuli/48_0.jpg","f","response","f","true"
"","","","","","html-keyboard-response","284","2.0.0","1505985","p598gq2jz0d","null","<p style=""border: 5px solid green;"">Correct!</p>","null","","",""
"","","","","","html-keyboard-response","285","2.0.0","1506988","p598gq2jz0d","null","<div style=""font-size: 75px;"">+</div>","null","","",""
"","","","","","image-keyboard-response","286","2.0.0","1508442","p598gq2jz0d","1451","stimuli/23_50.jpg","f","response","f","true"
"","","","","","html-keyboard-response","287","2.0.0","1508944","p598gq2jz0d","null","<p style=""border: 5px solid green;"">Correct!</p>","null","","",""
"","","","","","html-keyboard-response","288","2.0.0","1509947","p598gq2jz0d","null","<div style=""font-size: 75px;"">+</div>","null","","",""
"","","","","","image-keyboard-response","289","2.0.0","1512329","p598gq2jz0d","2381","stimuli/14_150_R.jpg","j","response","j","true"
"","","","","","html-keyboard-response","290","2.0.0","1512832","p598gq2jz0d","null","<p style=""border: 5px solid green;"">Correct!</p>","null","","",""
"","","","","","html-keyboard-response","291","2.0.0","1513834","p598gq2jz0d","null","<div style=""font-size: 75px;"">+</div>","null","","",""
"","","","","","image-keyboard-response","292","2.0.0","1517490","p598gq2jz0d","3654","stimuli/43_150.jpg","f","response","f","true"
"","","","","","html-keyboard-response","293","2.0.0","1517993","p598gq2jz0d","null","<p style=""border: 5px solid green;"">Correct!</p>","null","","",""
"","","","","","html-keyboard-response","294","2.0.0","1520028","p598gq2jz0d","2034","<p>Thank you for participating!</p><p>Please press space to answer our survey.</p>"," ","","",""
"","","","","","survey-html-form","295","null","1628286","p598gq2jz0d","108252","","{""response_1"":""Clear and lively"",""response_2"":""Clear and lively"",""response_3"":""Moderately clear and lively"",""response_4"":""Clear and lively"",""response_5"":""Moderately clear and lively"",""response_6"":""Clear and lively"",""response_7"":""Clear and lively"",""response_8"":""Clear and lively"",""response_9"":""Perfectly clear and lively as real seeing"",""response_10"":""Perfectly clear and lively as real seeing"",""response_11"":""Clear and lively"",""response_12"":""Moderately clear and lively"",""response_13"":""Clear and lively"",""response_14"":""Moderately clear and lively"",""response_15"":""Moderately clear and lively"",""response_16"":""Moderately clear and lively""}","","",""
"","","","","","survey-html-form","296","null","1654935","p598gq2jz0d","26646","","{""age"":""22"",""gender"":""male"",""education"":""bachelors"",""handedness"":""right"",""vision"":""corrected"",""technical_difficulties"":""no"",""knowledge_check"":""it is fun""}","","",""
