"success","timeout","failed_images","failed_audio","failed_video","trial_type","trial_index","plugin_version","time_elapsed","random_id","rt","stimulus","response","task","correct_response","correct"
"true","false","[]","[]","[]","preload","0","2.0.0","7013","p5ha5q5q3xr","","","","","",""
"true","","","","","fullscreen","1","2.0.0","10483","p5ha5q5q3xr","2465","","","","",""
"","","","","","html-keyboard-response","2","2.0.0","11430","p5ha5q5q3xr","944","Welcome to the experiment. Press any key to begin."," ","","",""
"","","","","","survey-text","3","2.0.0","16601","p5ha5q5q3xr","5168","","{""participant_id"":""trex""}","","",""
"","","","","","html-keyboard-response","4","2.0.0","38739","p5ha5q5q3xr","22137","
        <p>Welcome to the experiment.</p>
        <p>In this task, you will see pairs of images.</p>
        <p>Your job is to determine whether the image on the right is a rotated version of the image on the left.</p>
        <p>Press the <strong>F</strong> key if the images are the same.</p>
        <p>Press the <strong>J</strong> key if the images are different.</p>
        <p>Press any key to begin.</p>
    "," ","","",""
"","","","","","html-keyboard-response","5","2.0.0","39742","p5ha5q5q3xr","null","<div style=""font-size: 75px;"">+</div>","null","","",""
"","","","","","image-keyboard-response","6","2.0.0","41909","p5ha5q5q3xr","2165","stimuli/19_50.jpg","f","response","f","true"
"","","","","","html-keyboard-response","7","2.0.0","42412","p5ha5q5q3xr","null","<p style=""border: 5px solid green;"">Correct!</p>","null","","",""
"","","","","","html-keyboard-response","8","2.0.0","43415","p5ha5q5q3xr","null","<div style=""font-size: 75px;"">+</div>","null","","",""
"","","","","","image-keyboard-response","9","2.0.0","45272","p5ha5q5q3xr","1854","stimuli/32_100.jpg","f","response","f","true"
"","","","","","html-keyboard-response","10","2.0.0","45778","p5ha5q5q3xr","null","<p style=""border: 5px solid green;"">Correct!</p>","null","","",""
"","","","","","html-keyboard-response","11","2.0.0","46782","p5ha5q5q3xr","null","<div style=""font-size: 75px;"">+</div>","null","","",""
"","","","","","image-keyboard-response","12","2.0.0","48053","p5ha5q5q3xr","1269","stimuli/33_0_R.jpg","f","response","j","false"
"","","","","","html-keyboard-response","13","2.0.0","48555","p5ha5q5q3xr","null","<p style=""border: 5px solid red;"">Incorrect.</p>","null","","",""
"","","","","","html-keyboard-response","14","2.0.0","49559","p5ha5q5q3xr","null","<div style=""font-size: 75px;"">+</div>","null","","",""
"","","","","","image-keyboard-response","15","2.0.0","51189","p5ha5q5q3xr","1628","stimuli/28_0_R.jpg","f","response","j","false"
"","","","","","html-keyboard-response","16","2.0.0","51691","p5ha5q5q3xr","null","<p style=""border: 5px solid red;"">Incorrect.</p>","null","","",""
"","","","","","html-keyboard-response","17","2.0.0","52695","p5ha5q5q3xr","null","<div style=""font-size: 75px;"">+</div>","null","","",""
"","","","","","image-keyboard-response","18","2.0.0","53992","p5ha5q5q3xr","1295","stimuli/3_100_R.jpg","f","response","j","false"
"","","","","","html-keyboard-response","19","2.0.0","54494","p5ha5q5q3xr","null","<p style=""border: 5px solid red;"">Incorrect.</p>","null","","",""
"","","","","","html-keyboard-response","20","2.0.0","55497","p5ha5q5q3xr","null","<div style=""font-size: 75px;"">+</div>","null","","",""
"","","","","","image-keyboard-response","21","2.0.0","56522","p5ha5q5q3xr","1022","stimuli/46_150.jpg","f","response","f","true"
"","","","","","html-keyboard-response","22","2.0.0","57025","p5ha5q5q3xr","null","<p style=""border: 5px solid green;"">Correct!</p>","null","","",""
"","","","","","html-keyboard-response","23","2.0.0","58028","p5ha5q5q3xr","null","<div style=""font-size: 75px;"">+</div>","null","","",""
"","","","","","image-keyboard-response","24","2.0.0","58798","p5ha5q5q3xr","768","stimuli/48_100.jpg","f","response","f","true"
"","","","","","html-keyboard-response","25","2.0.0","59301","p5ha5q5q3xr","null","<p style=""border: 5px solid green;"">Correct!</p>","null","","",""
"","","","","","html-keyboard-response","26","2.0.0","60303","p5ha5q5q3xr","null","<div style=""font-size: 75px;"">+</div>","null","","",""
"","","","","","image-keyboard-response","27","2.0.0","62402","p5ha5q5q3xr","2096","stimuli/10_0_R.jpg","j","response","j","true"
"","","","","","html-keyboard-response","28","2.0.0","62904","p5ha5q5q3xr","null","<p style=""border: 5px solid green;"">Correct!</p>","null","","",""
"","","","","","html-keyboard-response","29","2.0.0","63908","p5ha5q5q3xr","null","<div style=""font-size: 75px;"">+</div>","null","","",""
"","","","","","image-keyboard-response","30","2.0.0","64799","p5ha5q5q3xr","889","stimuli/20_0.jpg","f","response","f","true"
"","","","","","html-keyboard-response","31","2.0.0","65303","p5ha5q5q3xr","null","<p style=""border: 5px solid green;"">Correct!</p>","null","","",""
"","","","","","html-keyboard-response","32","2.0.0","66306","p5ha5q5q3xr","null","<div style=""font-size: 75px;"">+</div>","null","","",""
"","","","","","image-keyboard-response","33","2.0.0","68530","p5ha5q5q3xr","2221","stimuli/36_100.jpg","f","response","f","true"
"","","","","","html-keyboard-response","34","2.0.0","69033","p5ha5q5q3xr","null","<p style=""border: 5px solid green;"">Correct!</p>","null","","",""
"","","","","","html-keyboard-response","35","2.0.0","70035","p5ha5q5q3xr","null","<div style=""font-size: 75px;"">+</div>","null","","",""
"","","","","","image-keyboard-response","36","2.0.0","70788","p5ha5q5q3xr","750","stimuli/24_50_R.jpg","f","response","j","false"
"","","","","","html-keyboard-response","37","2.0.0","71291","p5ha5q5q3xr","null","<p style=""border: 5px solid red;"">Incorrect.</p>","null","","",""
"","","","","","html-keyboard-response","38","2.0.0","72294","p5ha5q5q3xr","null","<div style=""font-size: 75px;"">+</div>","null","","",""
"","","","","","image-keyboard-response","39","2.0.0","73216","p5ha5q5q3xr","919","stimuli/27_50.jpg","f","response","f","true"
"","","","","","html-keyboard-response","40","2.0.0","73719","p5ha5q5q3xr","null","<p style=""border: 5px solid green;"">Correct!</p>","null","","",""
"","","","","","html-keyboard-response","41","2.0.0","74722","p5ha5q5q3xr","null","<div style=""font-size: 75px;"">+</div>","null","","",""
"","","","","","image-keyboard-response","42","2.0.0","75375","p5ha5q5q3xr","651","stimuli/46_50_R.jpg","f","response","j","false"
"","","","","","html-keyboard-response","43","2.0.0","75878","p5ha5q5q3xr","null","<p style=""border: 5px solid red;"">Incorrect.</p>","null","","",""
"","","","","","html-keyboard-response","44","2.0.0","76881","p5ha5q5q3xr","null","<div style=""font-size: 75px;"">+</div>","null","","",""
"","","","","","image-keyboard-response","45","2.0.0","77594","p5ha5q5q3xr","710","stimuli/22_150.jpg","f","response","f","true"
"","","","","","html-keyboard-response","46","2.0.0","78095","p5ha5q5q3xr","null","<p style=""border: 5px solid green;"">Correct!</p>","null","","",""
"","","","","","html-keyboard-response","47","2.0.0","79098","p5ha5q5q3xr","null","<div style=""font-size: 75px;"">+</div>","null","","",""
"","","","","","image-keyboard-response","48","2.0.0","80176","p5ha5q5q3xr","1075","stimuli/25_150.jpg","f","response","f","true"
"","","","","","html-keyboard-response","49","2.0.0","80678","p5ha5q5q3xr","null","<p style=""border: 5px solid green;"">Correct!</p>","null","","",""
"","","","","","html-keyboard-response","50","2.0.0","81682","p5ha5q5q3xr","null","<div style=""font-size: 75px;"">+</div>","null","","",""
"","","","","","image-keyboard-response","51","2.0.0","82496","p5ha5q5q3xr","812","stimuli/4_100_R.jpg","j","response","j","true"
"","","","","","html-keyboard-response","52","2.0.0","82999","p5ha5q5q3xr","null","<p style=""border: 5px solid green;"">Correct!</p>","null","","",""
"","","","","","html-keyboard-response","53","2.0.0","84002","p5ha5q5q3xr","null","<div style=""font-size: 75px;"">+</div>","null","","",""
"","","","","","image-keyboard-response","54","2.0.0","84680","p5ha5q5q3xr","675","stimuli/35_150.jpg","f","response","f","true"
"","","","","","html-keyboard-response","55","2.0.0","85183","p5ha5q5q3xr","null","<p style=""border: 5px solid green;"">Correct!</p>","null","","",""
"","","","","","html-keyboard-response","56","2.0.0","86186","p5ha5q5q3xr","null","<div style=""font-size: 75px;"">+</div>","null","","",""
"","","","","","image-keyboard-response","57","2.0.0","86795","p5ha5q5q3xr","606","stimuli/21_150_R.jpg","f","response","j","false"
"","","","","","html-keyboard-response","58","2.0.0","87298","p5ha5q5q3xr","null","<p style=""border: 5px solid red;"">Incorrect.</p>","null","","",""
"","","","","","html-keyboard-response","59","2.0.0","88301","p5ha5q5q3xr","null","<div style=""font-size: 75px;"">+</div>","null","","",""
"","","","","","image-keyboard-response","60","2.0.0","88835","p5ha5q5q3xr","531","stimuli/26_0_R.jpg","f","response","j","false"
"","","","","","html-keyboard-response","61","2.0.0","89337","p5ha5q5q3xr","null","<p style=""border: 5px solid red;"">Incorrect.</p>","null","","",""
"","","","","","html-keyboard-response","62","2.0.0","90341","p5ha5q5q3xr","null","<div style=""font-size: 75px;"">+</div>","null","","",""
"","","","","","image-keyboard-response","63","2.0.0","90709","p5ha5q5q3xr","365","stimuli/4_100.jpg","j","response","f","false"
"","","","","","html-keyboard-response","64","2.0.0","91211","p5ha5q5q3xr","null","<p style=""border: 5px solid red;"">Incorrect.</p>","null","","",""
"","","","","","html-keyboard-response","65","2.0.0","92214","p5ha5q5q3xr","null","<div style=""font-size: 75px;"">+</div>","null","","",""
"","","","","","image-keyboard-response","66","2.0.0","92722","p5ha5q5q3xr","506","stimuli/7_100.jpg","f","response","f","true"
"","","","","","html-keyboard-response","67","2.0.0","93224","p5ha5q5q3xr","null","<p style=""border: 5px solid green;"">Correct!</p>","null","","",""
"","","","","","html-keyboard-response","68","2.0.0","94227","p5ha5q5q3xr","null","<div style=""font-size: 75px;"">+</div>","null","","",""
"","","","","","image-keyboard-response","69","2.0.0","94800","p5ha5q5q3xr","570","stimuli/14_150.jpg","f","response","f","true"
"","","","","","html-keyboard-response","70","2.0.0","95301","p5ha5q5q3xr","null","<p style=""border: 5px solid green;"">Correct!</p>","null","","",""
"","","","","","html-keyboard-response","71","2.0.0","96305","p5ha5q5q3xr","null","<div style=""font-size: 75px;"">+</div>","null","","",""
"","","","","","image-keyboard-response","72","2.0.0","96885","p5ha5q5q3xr","578","stimuli/12_0_R.jpg","f","response","j","false"
"","","","","","html-keyboard-response","73","2.0.0","97387","p5ha5q5q3xr","null","<p style=""border: 5px solid red;"">Incorrect.</p>","null","","",""
"","","","","","html-keyboard-response","74","2.0.0","98390","p5ha5q5q3xr","null","<div style=""font-size: 75px;"">+</div>","null","","",""
"","","","","","image-keyboard-response","75","2.0.0","99203","p5ha5q5q3xr","810","stimuli/26_50.jpg","f","response","f","true"
"","","","","","html-keyboard-response","76","2.0.0","99706","p5ha5q5q3xr","null","<p style=""border: 5px solid green;"">Correct!</p>","null","","",""
"","","","","","html-keyboard-response","77","2.0.0","100710","p5ha5q5q3xr","null","<div style=""font-size: 75px;"">+</div>","null","","",""
"","","","","","image-keyboard-response","78","2.0.0","101547","p5ha5q5q3xr","835","stimuli/47_50_R.jpg","f","response","j","false"
"","","","","","html-keyboard-response","79","2.0.0","102049","p5ha5q5q3xr","null","<p style=""border: 5px solid red;"">Incorrect.</p>","null","","",""
"","","","","","html-keyboard-response","80","2.0.0","103053","p5ha5q5q3xr","null","<div style=""font-size: 75px;"">+</div>","null","","",""
"","","","","","image-keyboard-response","81","2.0.0","103853","p5ha5q5q3xr","797","stimuli/11_150.jpg","f","response","f","true"
"","","","","","html-keyboard-response","82","2.0.0","104355","p5ha5q5q3xr","null","<p style=""border: 5px solid green;"">Correct!</p>","null","","",""
"","","","","","html-keyboard-response","83","2.0.0","105358","p5ha5q5q3xr","null","<div style=""font-size: 75px;"">+</div>","null","","",""
"","","","","","image-keyboard-response","84","2.0.0","105994","p5ha5q5q3xr","633","stimuli/10_50_R.jpg","f","response","j","false"
"","","","","","html-keyboard-response","85","2.0.0","106496","p5ha5q5q3xr","null","<p style=""border: 5px solid red;"">Incorrect.</p>","null","","",""
"","","","","","html-keyboard-response","86","2.0.0","107499","p5ha5q5q3xr","null","<div style=""font-size: 75px;"">+</div>","null","","",""
"","","","","","image-keyboard-response","87","2.0.0","108189","p5ha5q5q3xr","687","stimuli/9_50.jpg","f","response","f","true"
"","","","","","html-keyboard-response","88","2.0.0","108692","p5ha5q5q3xr","null","<p style=""border: 5px solid green;"">Correct!</p>","null","","",""
"","","","","","html-keyboard-response","89","2.0.0","109694","p5ha5q5q3xr","null","<div style=""font-size: 75px;"">+</div>","null","","",""
"","","","","","image-keyboard-response","90","2.0.0","110207","p5ha5q5q3xr","510","stimuli/20_50.jpg","f","response","f","true"
"","","","","","html-keyboard-response","91","2.0.0","110710","p5ha5q5q3xr","null","<p style=""border: 5px solid green;"">Correct!</p>","null","","",""
"","","","","","html-keyboard-response","92","2.0.0","111713","p5ha5q5q3xr","null","<div style=""font-size: 75px;"">+</div>","null","","",""
"","","","","","image-keyboard-response","93","2.0.0","112142","p5ha5q5q3xr","425","stimuli/42_0.jpg","f","response","f","true"
"","","","","","html-keyboard-response","94","2.0.0","112644","p5ha5q5q3xr","null","<p style=""border: 5px solid green;"">Correct!</p>","null","","",""
"","","","","","html-keyboard-response","95","2.0.0","113648","p5ha5q5q3xr","null","<div style=""font-size: 75px;"">+</div>","null","","",""
"","","","","","image-keyboard-response","96","2.0.0","114117","p5ha5q5q3xr","467","stimuli/48_50_R.jpg","f","response","j","false"
"","","","","","html-keyboard-response","97","2.0.0","114620","p5ha5q5q3xr","null","<p style=""border: 5px solid red;"">Incorrect.</p>","null","","",""
"","","","","","html-keyboard-response","98","2.0.0","115623","p5ha5q5q3xr","null","<div style=""font-size: 75px;"">+</div>","null","","",""
"","","","","","image-keyboard-response","99","2.0.0","116058","p5ha5q5q3xr","434","stimuli/38_0.jpg","j","response","f","false"
"","","","","","html-keyboard-response","100","2.0.0","116561","p5ha5q5q3xr","null","<p style=""border: 5px solid red;"">Incorrect.</p>","null","","",""
"","","","","","html-keyboard-response","101","2.0.0","117565","p5ha5q5q3xr","null","<div style=""font-size: 75px;"">+</div>","null","","",""
"","","","","","image-keyboard-response","102","2.0.0","117957","p5ha5q5q3xr","389","stimuli/45_150_R.jpg","f","response","j","false"
"","","","","","html-keyboard-response","103","2.0.0","118459","p5ha5q5q3xr","null","<p style=""border: 5px solid red;"">Incorrect.</p>","null","","",""
"","","","","","html-keyboard-response","104","2.0.0","119462","p5ha5q5q3xr","null","<div style=""font-size: 75px;"">+</div>","null","","",""
"","","","","","image-keyboard-response","105","2.0.0","119872","p5ha5q5q3xr","407","stimuli/40_100.jpg","j","response","f","false"
"","","","","","html-keyboard-response","106","2.0.0","120375","p5ha5q5q3xr","null","<p style=""border: 5px solid red;"">Incorrect.</p>","null","","",""
"","","","","","html-keyboard-response","107","2.0.0","121378","p5ha5q5q3xr","null","<div style=""font-size: 75px;"">+</div>","null","","",""
"","","","","","image-keyboard-response","108","2.0.0","121903","p5ha5q5q3xr","523","stimuli/44_100.jpg","f","response","f","true"
"","","","","","html-keyboard-response","109","2.0.0","122406","p5ha5q5q3xr","null","<p style=""border: 5px solid green;"">Correct!</p>","null","","",""
"","","","","","html-keyboard-response","110","2.0.0","123410","p5ha5q5q3xr","null","<div style=""font-size: 75px;"">+</div>","null","","",""
"","","","","","image-keyboard-response","111","2.0.0","123951","p5ha5q5q3xr","539","stimuli/23_100_R.jpg","f","response","j","false"
"","","","","","html-keyboard-response","112","2.0.0","124454","p5ha5q5q3xr","null","<p style=""border: 5px solid red;"">Incorrect.</p>","null","","",""
"","","","","","html-keyboard-response","113","2.0.0","125458","p5ha5q5q3xr","null","<div style=""font-size: 75px;"">+</div>","null","","",""
"","","","","","image-keyboard-response","114","2.0.0","126633","p5ha5q5q3xr","1173","stimuli/27_100.jpg","j","response","f","false"
"","","","","","html-keyboard-response","115","2.0.0","127135","p5ha5q5q3xr","null","<p style=""border: 5px solid red;"">Incorrect.</p>","null","","",""
"","","","","","html-keyboard-response","116","2.0.0","128139","p5ha5q5q3xr","null","<div style=""font-size: 75px;"">+</div>","null","","",""
"","","","","","image-keyboard-response","117","2.0.0","128727","p5ha5q5q3xr","585","stimuli/3_0.jpg","f","response","f","true"
"","","","","","html-keyboard-response","118","2.0.0","129229","p5ha5q5q3xr","null","<p style=""border: 5px solid green;"">Correct!</p>","null","","",""
"","","","","","html-keyboard-response","119","2.0.0","130233","p5ha5q5q3xr","null","<div style=""font-size: 75px;"">+</div>","null","","",""
"","","","","","image-keyboard-response","120","2.0.0","130832","p5ha5q5q3xr","595","stimuli/45_150.jpg","f","response","f","true"
"","","","","","html-keyboard-response","121","2.0.0","131334","p5ha5q5q3xr","null","<p style=""border: 5px solid green;"">Correct!</p>","null","","",""
"","","","","","html-keyboard-response","122","2.0.0","132337","p5ha5q5q3xr","null","<div style=""font-size: 75px;"">+</div>","null","","",""
"","","","","","image-keyboard-response","123","2.0.0","133021","p5ha5q5q3xr","681","stimuli/22_100.jpg","f","response","f","true"
"","","","","","html-keyboard-response","124","2.0.0","133523","p5ha5q5q3xr","null","<p style=""border: 5px solid green;"">Correct!</p>","null","","",""
"","","","","","html-keyboard-response","125","2.0.0","134525","p5ha5q5q3xr","null","<div style=""font-size: 75px;"">+</div>","null","","",""
"","","","","","image-keyboard-response","126","2.0.0","135320","p5ha5q5q3xr","792","stimuli/39_150_R.jpg","f","response","j","false"
"","","","","","html-keyboard-response","127","2.0.0","135822","p5ha5q5q3xr","null","<p style=""border: 5px solid red;"">Incorrect.</p>","null","","",""
"","","","","","html-keyboard-response","128","2.0.0","136825","p5ha5q5q3xr","null","<div style=""font-size: 75px;"">+</div>","null","","",""
"","","","","","image-keyboard-response","129","2.0.0","138042","p5ha5q5q3xr","1214","stimuli/41_150_R.jpg","f","response","j","false"
"","","","","","html-keyboard-response","130","2.0.0","138545","p5ha5q5q3xr","null","<p style=""border: 5px solid red;"">Incorrect.</p>","null","","",""
"","","","","","html-keyboard-response","131","2.0.0","139548","p5ha5q5q3xr","null","<div style=""font-size: 75px;"">+</div>","null","","",""
"","","","","","image-keyboard-response","132","2.0.0","140458","p5ha5q5q3xr","907","stimuli/40_0.jpg","f","response","f","true"
"","","","","","html-keyboard-response","133","2.0.0","140961","p5ha5q5q3xr","null","<p style=""border: 5px solid green;"">Correct!</p>","null","","",""
"","","","","","html-keyboard-response","134","2.0.0","141964","p5ha5q5q3xr","null","<div style=""font-size: 75px;"">+</div>","null","","",""
"","","","","","image-keyboard-response","135","2.0.0","142669","p5ha5q5q3xr","703","stimuli/15_50_R.jpg","f","response","j","false"
"","","","","","html-keyboard-response","136","2.0.0","143172","p5ha5q5q3xr","null","<p style=""border: 5px solid red;"">Incorrect.</p>","null","","",""
"","","","","","html-keyboard-response","137","2.0.0","144176","p5ha5q5q3xr","null","<div style=""font-size: 75px;"">+</div>","null","","",""
"","","","","","image-keyboard-response","138","2.0.0","145168","p5ha5q5q3xr","990","stimuli/18_50_R.jpg","f","response","j","false"
"","","","","","html-keyboard-response","139","2.0.0","145671","p5ha5q5q3xr","null","<p style=""border: 5px solid red;"">Incorrect.</p>","null","","",""
"","","","","","html-keyboard-response","140","2.0.0","146674","p5ha5q5q3xr","null","<div style=""font-size: 75px;"">+</div>","null","","",""
"","","","","","image-keyboard-response","141","2.0.0","147395","p5ha5q5q3xr","719","stimuli/30_0_R.jpg","f","response","j","false"
"","","","","","html-keyboard-response","142","2.0.0","147897","p5ha5q5q3xr","null","<p style=""border: 5px solid red;"">Incorrect.</p>","null","","",""
"","","","","","html-keyboard-response","143","2.0.0","148901","p5ha5q5q3xr","null","<div style=""font-size: 75px;"">+</div>","null","","",""
"","","","","","image-keyboard-response","144","2.0.0","149759","p5ha5q5q3xr","855","stimuli/29_0.jpg","f","response","f","true"
"","","","","","html-keyboard-response","145","2.0.0","150262","p5ha5q5q3xr","null","<p style=""border: 5px solid green;"">Correct!</p>","null","","",""
"","","","","","html-keyboard-response","146","2.0.0","151265","p5ha5q5q3xr","null","<div style=""font-size: 75px;"">+</div>","null","","",""
"","","","","","image-keyboard-response","147","2.0.0","153017","p5ha5q5q3xr","1749","stimuli/20_150_R.jpg","f","response","j","false"
"","","","","","html-keyboard-response","148","2.0.0","153519","p5ha5q5q3xr","null","<p style=""border: 5px solid red;"">Incorrect.</p>","null","","",""
"","","","","","html-keyboard-response","149","2.0.0","183523","p5ha5q5q3xr","null","<p> Take a break! Experiment continues in 30 seconds . </p>","null","","",""
"","","","","","html-keyboard-response","150","2.0.0","184526","p5ha5q5q3xr","null","<div style=""font-size: 75px;"">+</div>","null","","",""
"","","","","","image-keyboard-response","151","2.0.0","189667","p5ha5q5q3xr","5138","stimuli/2_0.jpg","f","response","f","true"
"","","","","","html-keyboard-response","152","2.0.0","190170","p5ha5q5q3xr","null","<p style=""border: 5px solid green;"">Correct!</p>","null","","",""
"","","","","","html-keyboard-response","153","2.0.0","191172","p5ha5q5q3xr","null","<div style=""font-size: 75px;"">+</div>","null","","",""
"","","","","","image-keyboard-response","154","2.0.0","192044","p5ha5q5q3xr","869","stimuli/36_150_R.jpg","f","response","j","false"
"","","","","","html-keyboard-response","155","2.0.0","192546","p5ha5q5q3xr","null","<p style=""border: 5px solid red;"">Incorrect.</p>","null","","",""
"","","","","","html-keyboard-response","156","2.0.0","193549","p5ha5q5q3xr","null","<div style=""font-size: 75px;"">+</div>","null","","",""
"","","","","","image-keyboard-response","157","2.0.0","194440","p5ha5q5q3xr","888","stimuli/17_150_R.jpg","f","response","j","false"
"","","","","","html-keyboard-response","158","2.0.0","194943","p5ha5q5q3xr","null","<p style=""border: 5px solid red;"">Incorrect.</p>","null","","",""
"","","","","","html-keyboard-response","159","2.0.0","195946","p5ha5q5q3xr","null","<div style=""font-size: 75px;"">+</div>","null","","",""
"","","","","","image-keyboard-response","160","2.0.0","196557","p5ha5q5q3xr","609","stimuli/44_50.jpg","f","response","f","true"
"","","","","","html-keyboard-response","161","2.0.0","197059","p5ha5q5q3xr","null","<p style=""border: 5px solid green;"">Correct!</p>","null","","",""
"","","","","","html-keyboard-response","162","2.0.0","198063","p5ha5q5q3xr","null","<div style=""font-size: 75px;"">+</div>","null","","",""
"","","","","","image-keyboard-response","163","2.0.0","198756","p5ha5q5q3xr","690","stimuli/30_100_R.jpg","f","response","j","false"
"","","","","","html-keyboard-response","164","2.0.0","199258","p5ha5q5q3xr","null","<p style=""border: 5px solid red;"">Incorrect.</p>","null","","",""
"","","","","","html-keyboard-response","165","2.0.0","200261","p5ha5q5q3xr","null","<div style=""font-size: 75px;"">+</div>","null","","",""
"","","","","","image-keyboard-response","166","2.0.0","200912","p5ha5q5q3xr","649","stimuli/24_150.jpg","f","response","f","true"
"","","","","","html-keyboard-response","167","2.0.0","201415","p5ha5q5q3xr","null","<p style=""border: 5px solid green;"">Correct!</p>","null","","",""
"","","","","","html-keyboard-response","168","2.0.0","202418","p5ha5q5q3xr","null","<div style=""font-size: 75px;"">+</div>","null","","",""
"","","","","","image-keyboard-response","169","2.0.0","202926","p5ha5q5q3xr","506","stimuli/2_100_R.jpg","f","response","j","false"
"","","","","","html-keyboard-response","170","2.0.0","203429","p5ha5q5q3xr","null","<p style=""border: 5px solid red;"">Incorrect.</p>","null","","",""
"","","","","","html-keyboard-response","171","2.0.0","204432","p5ha5q5q3xr","null","<div style=""font-size: 75px;"">+</div>","null","","",""
"","","","","","image-keyboard-response","172","2.0.0","205078","p5ha5q5q3xr","643","stimuli/6_0_R.jpg","f","response","j","false"
"","","","","","html-keyboard-response","173","2.0.0","205580","p5ha5q5q3xr","null","<p style=""border: 5px solid red;"">Incorrect.</p>","null","","",""
"","","","","","html-keyboard-response","174","2.0.0","206582","p5ha5q5q3xr","null","<div style=""font-size: 75px;"">+</div>","null","","",""
"","","","","","image-keyboard-response","175","2.0.0","208883","p5ha5q5q3xr","2299","stimuli/11_100_R.jpg","j","response","j","true"
"","","","","","html-keyboard-response","176","2.0.0","209385","p5ha5q5q3xr","null","<p style=""border: 5px solid green;"">Correct!</p>","null","","",""
"","","","","","html-keyboard-response","177","2.0.0","210388","p5ha5q5q3xr","null","<div style=""font-size: 75px;"">+</div>","null","","",""
"","","","","","image-keyboard-response","178","2.0.0","211710","p5ha5q5q3xr","1319","stimuli/5_0.jpg","f","response","f","true"
"","","","","","html-keyboard-response","179","2.0.0","212212","p5ha5q5q3xr","null","<p style=""border: 5px solid green;"">Correct!</p>","null","","",""
"","","","","","html-keyboard-response","180","2.0.0","213216","p5ha5q5q3xr","null","<div style=""font-size: 75px;"">+</div>","null","","",""
"","","","","","image-keyboard-response","181","2.0.0","213829","p5ha5q5q3xr","610","stimuli/43_50_R.jpg","f","response","j","false"
"","","","","","html-keyboard-response","182","2.0.0","214332","p5ha5q5q3xr","null","<p style=""border: 5px solid red;"">Incorrect.</p>","null","","",""
"","","","","","html-keyboard-response","183","2.0.0","215334","p5ha5q5q3xr","null","<div style=""font-size: 75px;"">+</div>","null","","",""
"","","","","","image-keyboard-response","184","2.0.0","216172","p5ha5q5q3xr","835","stimuli/48_150_R.jpg","j","response","j","true"
"","","","","","html-keyboard-response","185","2.0.0","216675","p5ha5q5q3xr","null","<p style=""border: 5px solid green;"">Correct!</p>","null","","",""
"","","","","","html-keyboard-response","186","2.0.0","217678","p5ha5q5q3xr","null","<div style=""font-size: 75px;"">+</div>","null","","",""
"","","","","","image-keyboard-response","187","2.0.0","218512","p5ha5q5q3xr","832","stimuli/16_50_R.jpg","j","response","j","true"
"","","","","","html-keyboard-response","188","2.0.0","219014","p5ha5q5q3xr","null","<p style=""border: 5px solid green;"">Correct!</p>","null","","",""
"","","","","","html-keyboard-response","189","2.0.0","220018","p5ha5q5q3xr","null","<div style=""font-size: 75px;"">+</div>","null","","",""
"","","","","","image-keyboard-response","190","2.0.0","220901","p5ha5q5q3xr","881","stimuli/39_0.jpg","j","response","f","false"
"","","","","","html-keyboard-response","191","2.0.0","221404","p5ha5q5q3xr","null","<p style=""border: 5px solid red;"">Incorrect.</p>","null","","",""
"","","","","","html-keyboard-response","192","2.0.0","222407","p5ha5q5q3xr","null","<div style=""font-size: 75px;"">+</div>","null","","",""
"","","","","","image-keyboard-response","193","2.0.0","222858","p5ha5q5q3xr","448","stimuli/30_100.jpg","f","response","f","true"
"","","","","","html-keyboard-response","194","2.0.0","223359","p5ha5q5q3xr","null","<p style=""border: 5px solid green;"">Correct!</p>","null","","",""
"","","","","","html-keyboard-response","195","2.0.0","224363","p5ha5q5q3xr","null","<div style=""font-size: 75px;"">+</div>","null","","",""
"","","","","","image-keyboard-response","196","2.0.0","225572","p5ha5q5q3xr","1206","stimuli/10_100_R.jpg","f","response","j","false"
"","","","","","html-keyboard-response","197","2.0.0","226074","p5ha5q5q3xr","null","<p style=""border: 5px solid red;"">Incorrect.</p>","null","","",""
"","","","","","html-keyboard-response","198","2.0.0","227077","p5ha5q5q3xr","null","<div style=""font-size: 75px;"">+</div>","null","","",""
"","","","","","image-keyboard-response","199","2.0.0","227647","p5ha5q5q3xr","567","stimuli/44_150_R.jpg","j","response","j","true"
"","","","","","html-keyboard-response","200","2.0.0","228149","p5ha5q5q3xr","null","<p style=""border: 5px solid green;"">Correct!</p>","null","","",""
"","","","","","html-keyboard-response","201","2.0.0","229153","p5ha5q5q3xr","null","<div style=""font-size: 75px;"">+</div>","null","","",""
"","","","","","image-keyboard-response","202","2.0.0","229593","p5ha5q5q3xr","438","stimuli/14_150_R.jpg","j","response","j","true"
"","","","","","html-keyboard-response","203","2.0.0","230095","p5ha5q5q3xr","null","<p style=""border: 5px solid green;"">Correct!</p>","null","","",""
"","","","","","html-keyboard-response","204","2.0.0","231098","p5ha5q5q3xr","null","<div style=""font-size: 75px;"">+</div>","null","","",""
"","","","","","image-keyboard-response","205","2.0.0","231609","p5ha5q5q3xr","508","stimuli/8_0_R.jpg","j","response","j","true"
"","","","","","html-keyboard-response","206","2.0.0","232111","p5ha5q5q3xr","null","<p style=""border: 5px solid green;"">Correct!</p>","null","","",""
"","","","","","html-keyboard-response","207","2.0.0","233114","p5ha5q5q3xr","null","<div style=""font-size: 75px;"">+</div>","null","","",""
"","","","","","image-keyboard-response","208","2.0.0","233545","p5ha5q5q3xr","429","stimuli/34_100_R.jpg","j","response","j","true"
"","","","","","html-keyboard-response","209","2.0.0","234048","p5ha5q5q3xr","null","<p style=""border: 5px solid green;"">Correct!</p>","null","","",""
"","","","","","html-keyboard-response","210","2.0.0","235051","p5ha5q5q3xr","null","<div style=""font-size: 75px;"">+</div>","null","","",""
"","","","","","image-keyboard-response","211","2.0.0","235969","p5ha5q5q3xr","916","stimuli/46_0_R.jpg","f","response","j","false"
"","","","","","html-keyboard-response","212","2.0.0","236471","p5ha5q5q3xr","null","<p style=""border: 5px solid red;"">Incorrect.</p>","null","","",""
"","","","","","html-keyboard-response","213","2.0.0","237474","p5ha5q5q3xr","null","<div style=""font-size: 75px;"">+</div>","null","","",""
"","","","","","image-keyboard-response","214","2.0.0","238520","p5ha5q5q3xr","1043","stimuli/15_50.jpg","f","response","f","true"
"","","","","","html-keyboard-response","215","2.0.0","239022","p5ha5q5q3xr","null","<p style=""border: 5px solid green;"">Correct!</p>","null","","",""
"","","","","","html-keyboard-response","216","2.0.0","240024","p5ha5q5q3xr","null","<div style=""font-size: 75px;"">+</div>","null","","",""
"","","","","","image-keyboard-response","217","2.0.0","240609","p5ha5q5q3xr","583","stimuli/2_150_R.jpg","f","response","j","false"
"","","","","","html-keyboard-response","218","2.0.0","241111","p5ha5q5q3xr","null","<p style=""border: 5px solid red;"">Incorrect.</p>","null","","",""
"","","","","","html-keyboard-response","219","2.0.0","242114","p5ha5q5q3xr","null","<div style=""font-size: 75px;"">+</div>","null","","",""
"","","","","","image-keyboard-response","220","2.0.0","242439","p5ha5q5q3xr","322","stimuli/38_100.jpg","j","response","f","false"
"","","","","","html-keyboard-response","221","2.0.0","242941","p5ha5q5q3xr","null","<p style=""border: 5px solid red;"">Incorrect.</p>","null","","",""
"","","","","","html-keyboard-response","222","2.0.0","243943","p5ha5q5q3xr","null","<div style=""font-size: 75px;"">+</div>","null","","",""
"","","","","","image-keyboard-response","223","2.0.0","244672","p5ha5q5q3xr","725","stimuli/39_50_R.jpg","j","response","j","true"
"","","","","","html-keyboard-response","224","2.0.0","245174","p5ha5q5q3xr","null","<p style=""border: 5px solid green;"">Correct!</p>","null","","",""
"","","","","","html-keyboard-response","225","2.0.0","246178","p5ha5q5q3xr","null","<div style=""font-size: 75px;"">+</div>","null","","",""
"","","","","","image-keyboard-response","226","2.0.0","246790","p5ha5q5q3xr","610","stimuli/34_150.jpg","f","response","f","true"
"","","","","","html-keyboard-response","227","2.0.0","247292","p5ha5q5q3xr","null","<p style=""border: 5px solid green;"">Correct!</p>","null","","",""
"","","","","","html-keyboard-response","228","2.0.0","248296","p5ha5q5q3xr","null","<div style=""font-size: 75px;"">+</div>","null","","",""
"","","","","","image-keyboard-response","229","2.0.0","249288","p5ha5q5q3xr","990","stimuli/27_50_R.jpg","f","response","j","false"
"","","","","","html-keyboard-response","230","2.0.0","249791","p5ha5q5q3xr","null","<p style=""border: 5px solid red;"">Incorrect.</p>","null","","",""
"","","","","","html-keyboard-response","231","2.0.0","250794","p5ha5q5q3xr","null","<div style=""font-size: 75px;"">+</div>","null","","",""
"","","","","","image-keyboard-response","232","2.0.0","251571","p5ha5q5q3xr","774","stimuli/17_50.jpg","f","response","f","true"
"","","","","","html-keyboard-response","233","2.0.0","252073","p5ha5q5q3xr","null","<p style=""border: 5px solid green;"">Correct!</p>","null","","",""
"","","","","","html-keyboard-response","234","2.0.0","253077","p5ha5q5q3xr","null","<div style=""font-size: 75px;"">+</div>","null","","",""
"","","","","","image-keyboard-response","235","2.0.0","253716","p5ha5q5q3xr","637","stimuli/17_0.jpg","f","response","f","true"
"","","","","","html-keyboard-response","236","2.0.0","254219","p5ha5q5q3xr","null","<p style=""border: 5px solid green;"">Correct!</p>","null","","",""
"","","","","","html-keyboard-response","237","2.0.0","255221","p5ha5q5q3xr","null","<div style=""font-size: 75px;"">+</div>","null","","",""
"","","","","","image-keyboard-response","238","2.0.0","255872","p5ha5q5q3xr","648","stimuli/14_50.jpg","f","response","f","true"
"","","","","","html-keyboard-response","239","2.0.0","256374","p5ha5q5q3xr","null","<p style=""border: 5px solid green;"">Correct!</p>","null","","",""
"","","","","","html-keyboard-response","240","2.0.0","257378","p5ha5q5q3xr","null","<div style=""font-size: 75px;"">+</div>","null","","",""
"","","","","","image-keyboard-response","241","2.0.0","258057","p5ha5q5q3xr","676","stimuli/15_0_R.jpg","f","response","j","false"
"","","","","","html-keyboard-response","242","2.0.0","258559","p5ha5q5q3xr","null","<p style=""border: 5px solid red;"">Incorrect.</p>","null","","",""
"","","","","","html-keyboard-response","243","2.0.0","259562","p5ha5q5q3xr","null","<div style=""font-size: 75px;"">+</div>","null","","",""
"","","","","","image-keyboard-response","244","2.0.0","260544","p5ha5q5q3xr","979","stimuli/28_100_R.jpg","f","response","j","false"
"","","","","","html-keyboard-response","245","2.0.0","261046","p5ha5q5q3xr","null","<p style=""border: 5px solid red;"">Incorrect.</p>","null","","",""
"","","","","","html-keyboard-response","246","2.0.0","262049","p5ha5q5q3xr","null","<div style=""font-size: 75px;"">+</div>","null","","",""
"","","","","","image-keyboard-response","247","2.0.0","262677","p5ha5q5q3xr","625","stimuli/4_0_R.jpg","f","response","j","false"
"","","","","","html-keyboard-response","248","2.0.0","263179","p5ha5q5q3xr","null","<p style=""border: 5px solid red;"">Incorrect.</p>","null","","",""
"","","","","","html-keyboard-response","249","2.0.0","264182","p5ha5q5q3xr","null","<div style=""font-size: 75px;"">+</div>","null","","",""
"","","","","","image-keyboard-response","250","2.0.0","264767","p5ha5q5q3xr","583","stimuli/20_0_R.jpg","f","response","j","false"
"","","","","","html-keyboard-response","251","2.0.0","265270","p5ha5q5q3xr","null","<p style=""border: 5px solid red;"">Incorrect.</p>","null","","",""
"","","","","","html-keyboard-response","252","2.0.0","266272","p5ha5q5q3xr","null","<div style=""font-size: 75px;"">+</div>","null","","",""
"","","","","","image-keyboard-response","253","2.0.0","267025","p5ha5q5q3xr","751","stimuli/11_150_R.jpg","f","response","j","false"
"","","","","","html-keyboard-response","254","2.0.0","267528","p5ha5q5q3xr","null","<p style=""border: 5px solid red;"">Incorrect.</p>","null","","",""
"","","","","","html-keyboard-response","255","2.0.0","268530","p5ha5q5q3xr","null","<div style=""font-size: 75px;"">+</div>","null","","",""
"","","","","","image-keyboard-response","256","2.0.0","269142","p5ha5q5q3xr","609","stimuli/31_150.jpg","f","response","f","true"
"","","","","","html-keyboard-response","257","2.0.0","269645","p5ha5q5q3xr","null","<p style=""border: 5px solid green;"">Correct!</p>","null","","",""
"","","","","","html-keyboard-response","258","2.0.0","270648","p5ha5q5q3xr","null","<div style=""font-size: 75px;"">+</div>","null","","",""
"","","","","","image-keyboard-response","259","2.0.0","271512","p5ha5q5q3xr","861","stimuli/11_50_R.jpg","f","response","j","false"
"","","","","","html-keyboard-response","260","2.0.0","272014","p5ha5q5q3xr","null","<p style=""border: 5px solid red;"">Incorrect.</p>","null","","",""
"","","","","","html-keyboard-response","261","2.0.0","273017","p5ha5q5q3xr","null","<div style=""font-size: 75px;"">+</div>","null","","",""
"","","","","","image-keyboard-response","262","2.0.0","274038","p5ha5q5q3xr","1019","stimuli/15_100.jpg","j","response","f","false"
"","","","","","html-keyboard-response","263","2.0.0","274541","p5ha5q5q3xr","null","<p style=""border: 5px solid red;"">Incorrect.</p>","null","","",""
"","","","","","html-keyboard-response","264","2.0.0","275544","p5ha5q5q3xr","null","<div style=""font-size: 75px;"">+</div>","null","","",""
"","","","","","image-keyboard-response","265","2.0.0","276253","p5ha5q5q3xr","707","stimuli/1_50.jpg","f","response","f","true"
"","","","","","html-keyboard-response","266","2.0.0","276755","p5ha5q5q3xr","null","<p style=""border: 5px solid green;"">Correct!</p>","null","","",""
"","","","","","html-keyboard-response","267","2.0.0","277759","p5ha5q5q3xr","null","<div style=""font-size: 75px;"">+</div>","null","","",""
"","","","","","image-keyboard-response","268","2.0.0","278327","p5ha5q5q3xr","565","stimuli/44_100_R.jpg","f","response","j","false"
"","","","","","html-keyboard-response","269","2.0.0","278830","p5ha5q5q3xr","null","<p style=""border: 5px solid red;"">Incorrect.</p>","null","","",""
"","","","","","html-keyboard-response","270","2.0.0","279833","p5ha5q5q3xr","null","<div style=""font-size: 75px;"">+</div>","null","","",""
"","","","","","image-keyboard-response","271","2.0.0","280507","p5ha5q5q3xr","672","stimuli/32_0.jpg","f","response","f","true"
"","","","","","html-keyboard-response","272","2.0.0","281010","p5ha5q5q3xr","null","<p style=""border: 5px solid green;"">Correct!</p>","null","","",""
"","","","","","html-keyboard-response","273","2.0.0","282013","p5ha5q5q3xr","null","<div style=""font-size: 75px;"">+</div>","null","","",""
"","","","","","image-keyboard-response","274","2.0.0","282799","p5ha5q5q3xr","783","stimuli/40_50.jpg","f","response","f","true"
"","","","","","html-keyboard-response","275","2.0.0","283302","p5ha5q5q3xr","null","<p style=""border: 5px solid green;"">Correct!</p>","null","","",""
"","","","","","html-keyboard-response","276","2.0.0","284305","p5ha5q5q3xr","null","<div style=""font-size: 75px;"">+</div>","null","","",""
"","","","","","image-keyboard-response","277","2.0.0","285160","p5ha5q5q3xr","853","stimuli/10_150.jpg","f","response","f","true"
"","","","","","html-keyboard-response","278","2.0.0","285662","p5ha5q5q3xr","null","<p style=""border: 5px solid green;"">Correct!</p>","null","","",""
"","","","","","html-keyboard-response","279","2.0.0","286666","p5ha5q5q3xr","null","<div style=""font-size: 75px;"">+</div>","null","","",""
"","","","","","image-keyboard-response","280","2.0.0","287513","p5ha5q5q3xr","845","stimuli/39_100_R.jpg","f","response","j","false"
"","","","","","html-keyboard-response","281","2.0.0","288016","p5ha5q5q3xr","null","<p style=""border: 5px solid red;"">Incorrect.</p>","null","","",""
"","","","","","html-keyboard-response","282","2.0.0","289018","p5ha5q5q3xr","null","<div style=""font-size: 75px;"">+</div>","null","","",""
"","","","","","image-keyboard-response","283","2.0.0","289521","p5ha5q5q3xr","500","stimuli/13_50.jpg","j","response","f","false"
"","","","","","html-keyboard-response","284","2.0.0","290023","p5ha5q5q3xr","null","<p style=""border: 5px solid red;"">Incorrect.</p>","null","","",""
"","","","","","html-keyboard-response","285","2.0.0","291026","p5ha5q5q3xr","null","<div style=""font-size: 75px;"">+</div>","null","","",""
"","","","","","image-keyboard-response","286","2.0.0","291430","p5ha5q5q3xr","401","stimuli/15_150.jpg","f","response","f","true"
"","","","","","html-keyboard-response","287","2.0.0","291933","p5ha5q5q3xr","null","<p style=""border: 5px solid green;"">Correct!</p>","null","","",""
"","","","","","html-keyboard-response","288","2.0.0","292936","p5ha5q5q3xr","null","<div style=""font-size: 75px;"">+</div>","null","","",""
"","","","","","image-keyboard-response","289","2.0.0","293406","p5ha5q5q3xr","467","stimuli/38_100_R.jpg","f","response","j","false"
"","","","","","html-keyboard-response","290","2.0.0","293908","p5ha5q5q3xr","null","<p style=""border: 5px solid red;"">Incorrect.</p>","null","","",""
"","","","","","html-keyboard-response","291","2.0.0","294911","p5ha5q5q3xr","null","<div style=""font-size: 75px;"">+</div>","null","","",""
"","","","","","image-keyboard-response","292","2.0.0","295779","p5ha5q5q3xr","865","stimuli/4_0.jpg","f","response","f","true"
"","","","","","html-keyboard-response","293","2.0.0","296280","p5ha5q5q3xr","null","<p style=""border: 5px solid green;"">Correct!</p>","null","","",""
"","","","","","html-keyboard-response","294","2.0.0","298032","p5ha5q5q3xr","1750","<p>Thank you for participating!</p><p>Please press space to answer our survey.</p>"," ","","",""
"","","","","","survey-html-form","295","null","395554","p5ha5q5q3xr","97515","","{""response_1"":""Dim and vague; flat"",""response_2"":""Clear and lively"",""response_3"":""Dim and vague; flat"",""response_4"":""Clear and lively"",""response_5"":""Clear and lively"",""response_6"":""Clear and lively"",""response_7"":""Clear and lively"",""response_8"":""Perfectly clear and lively as real seeing"",""response_9"":""Clear and lively"",""response_10"":""Moderately clear and lively"",""response_11"":""Moderately clear and lively"",""response_12"":""Moderately clear and lively"",""response_13"":""Clear and lively"",""response_14"":""Moderately clear and lively"",""response_15"":""Clear and lively"",""response_16"":""Moderately clear and lively""}","","",""
"","","","","","survey-html-form","296","null","418535","p5ha5q5q3xr","22978","","{""age"":""20"",""gender"":""female"",""education"":""some-college"",""handedness"":""right"",""vision"":""corrected"",""technical_difficulties"":""no"",""knowledge_check"":""pattern recongition""}","","",""
