"success","timeout","failed_images","failed_audio","failed_video","trial_type","trial_index","plugin_version","time_elapsed","random_id","rt","stimulus","response","task","correct_response","correct"
"true","false","[]","[]","[]","preload","0","2.0.0","26867","p7th3x7jkkh","","","","","",""
"true","","","","","fullscreen","1","2.0.0","30837","p7th3x7jkkh","2966","","","","",""
"","","","","","html-keyboard-response","2","2.0.0","69174","p7th3x7jkkh","38335","Welcome to the experiment. Press any key to begin.","Enter","","",""
"","","","","","survey-text","3","2.0.0","72263","p7th3x7jkkh","3075","","{""participant_id"":""panda""}","","",""
"","","","","","html-keyboard-response","4","2.0.0","85688","p7th3x7jkkh","13423","
        <p>Welcome to the experiment.</p>
        <p>In this task, you will see pairs of images.</p>
        <p>Your job is to determine whether the image on the right is a rotated version of the image on the left.</p>
        <p>Press the <strong>F</strong> key if the images are the same.</p>
        <p>Press the <strong>J</strong> key if the images are different.</p>
        <p>Press any key to begin.</p>
    ","Enter","","",""
"","","","","","html-keyboard-response","5","2.0.0","86691","p7th3x7jkkh","null","<div style=""font-size: 75px;"">+</div>","null","","",""
"","","","","","image-keyboard-response","6","2.0.0","91671","p7th3x7jkkh","4970","stimuli/16_50.jpg","f","response","f","true"
"","","","","","html-keyboard-response","7","2.0.0","92175","p7th3x7jkkh","null","<p style=""border: 5px solid green;"">Correct!</p>","null","","",""
"","","","","","html-keyboard-response","8","2.0.0","93181","p7th3x7jkkh","null","<div style=""font-size: 75px;"">+</div>","null","","",""
"","","","","","image-keyboard-response","9","2.0.0","95456","p7th3x7jkkh","2267","stimuli/9_100_R.jpg","j","response","j","true"
"","","","","","html-keyboard-response","10","2.0.0","95959","p7th3x7jkkh","null","<p style=""border: 5px solid green;"">Correct!</p>","null","","",""
"","","","","","html-keyboard-response","11","2.0.0","96963","p7th3x7jkkh","null","<div style=""font-size: 75px;"">+</div>","null","","",""
"","","","","","image-keyboard-response","12","2.0.0","98050","p7th3x7jkkh","1077","stimuli/30_0.jpg","f","response","f","true"
"","","","","","html-keyboard-response","13","2.0.0","98553","p7th3x7jkkh","null","<p style=""border: 5px solid green;"">Correct!</p>","null","","",""
"","","","","","html-keyboard-response","14","2.0.0","99557","p7th3x7jkkh","null","<div style=""font-size: 75px;"">+</div>","null","","",""
"","","","","","image-keyboard-response","15","2.0.0","101026","p7th3x7jkkh","1461","stimuli/29_100_R.jpg","j","response","j","true"
"","","","","","html-keyboard-response","16","2.0.0","101530","p7th3x7jkkh","null","<p style=""border: 5px solid green;"">Correct!</p>","null","","",""
"","","","","","html-keyboard-response","17","2.0.0","102534","p7th3x7jkkh","null","<div style=""font-size: 75px;"">+</div>","null","","",""
"","","","","","image-keyboard-response","18","2.0.0","106185","p7th3x7jkkh","3641","stimuli/36_100_R.jpg","f","response","j","false"
"","","","","","html-keyboard-response","19","2.0.0","106688","p7th3x7jkkh","null","<p style=""border: 5px solid red;"">Incorrect.</p>","null","","",""
"","","","","","html-keyboard-response","20","2.0.0","107692","p7th3x7jkkh","null","<div style=""font-size: 75px;"">+</div>","null","","",""
"","","","","","image-keyboard-response","21","2.0.0","108590","p7th3x7jkkh","889","stimuli/1_0.jpg","f","response","f","true"
"","","","","","html-keyboard-response","22","2.0.0","109092","p7th3x7jkkh","null","<p style=""border: 5px solid green;"">Correct!</p>","null","","",""
"","","","","","html-keyboard-response","23","2.0.0","110096","p7th3x7jkkh","null","<div style=""font-size: 75px;"">+</div>","null","","",""
"","","","","","image-keyboard-response","24","2.0.0","112355","p7th3x7jkkh","2249","stimuli/45_50_R.jpg","j","response","j","true"
"","","","","","html-keyboard-response","25","2.0.0","112858","p7th3x7jkkh","null","<p style=""border: 5px solid green;"">Correct!</p>","null","","",""
"","","","","","html-keyboard-response","26","2.0.0","113862","p7th3x7jkkh","null","<div style=""font-size: 75px;"">+</div>","null","","",""
"","","","","","image-keyboard-response","27","2.0.0","118648","p7th3x7jkkh","4779","stimuli/12_50_R.jpg","j","response","j","true"
"","","","","","html-keyboard-response","28","2.0.0","119150","p7th3x7jkkh","null","<p style=""border: 5px solid green;"">Correct!</p>","null","","",""
"","","","","","html-keyboard-response","29","2.0.0","120154","p7th3x7jkkh","null","<div style=""font-size: 75px;"">+</div>","null","","",""
"","","","","","image-keyboard-response","30","2.0.0","121188","p7th3x7jkkh","1024","stimuli/21_150.jpg","j","response","f","false"
"","","","","","html-keyboard-response","31","2.0.0","121691","p7th3x7jkkh","null","<p style=""border: 5px solid red;"">Incorrect.</p>","null","","",""
"","","","","","html-keyboard-response","32","2.0.0","122694","p7th3x7jkkh","null","<div style=""font-size: 75px;"">+</div>","null","","",""
"","","","","","image-keyboard-response","33","2.0.0","124119","p7th3x7jkkh","1416","stimuli/36_50_R.jpg","f","response","j","false"
"","","","","","html-keyboard-response","34","2.0.0","124622","p7th3x7jkkh","null","<p style=""border: 5px solid red;"">Incorrect.</p>","null","","",""
"","","","","","html-keyboard-response","35","2.0.0","125627","p7th3x7jkkh","null","<div style=""font-size: 75px;"">+</div>","null","","",""
"","","","","","image-keyboard-response","36","2.0.0","127310","p7th3x7jkkh","1675","stimuli/47_50_R.jpg","j","response","j","true"
"","","","","","html-keyboard-response","37","2.0.0","127814","p7th3x7jkkh","null","<p style=""border: 5px solid green;"">Correct!</p>","null","","",""
"","","","","","html-keyboard-response","38","2.0.0","128817","p7th3x7jkkh","null","<div style=""font-size: 75px;"">+</div>","null","","",""
"","","","","","image-keyboard-response","39","2.0.0","130407","p7th3x7jkkh","1580","stimuli/6_50.jpg","j","response","f","false"
"","","","","","html-keyboard-response","40","2.0.0","130910","p7th3x7jkkh","null","<p style=""border: 5px solid red;"">Incorrect.</p>","null","","",""
"","","","","","html-keyboard-response","41","2.0.0","131914","p7th3x7jkkh","null","<div style=""font-size: 75px;"">+</div>","null","","",""
"","","","","","image-keyboard-response","42","2.0.0","133908","p7th3x7jkkh","1985","stimuli/3_50.jpg","j","response","f","false"
"","","","","","html-keyboard-response","43","2.0.0","134411","p7th3x7jkkh","null","<p style=""border: 5px solid red;"">Incorrect.</p>","null","","",""
"","","","","","html-keyboard-response","44","2.0.0","135415","p7th3x7jkkh","null","<div style=""font-size: 75px;"">+</div>","null","","",""
"","","","","","image-keyboard-response","45","2.0.0","136523","p7th3x7jkkh","1099","stimuli/4_50_R.jpg","j","response","j","true"
"","","","","","html-keyboard-response","46","2.0.0","137026","p7th3x7jkkh","null","<p style=""border: 5px solid green;"">Correct!</p>","null","","",""
"","","","","","html-keyboard-response","47","2.0.0","138030","p7th3x7jkkh","null","<div style=""font-size: 75px;"">+</div>","null","","",""
"","","","","","image-keyboard-response","48","2.0.0","140406","p7th3x7jkkh","2370","stimuli/37_150_R.jpg","f","response","j","false"
"","","","","","html-keyboard-response","49","2.0.0","140909","p7th3x7jkkh","null","<p style=""border: 5px solid red;"">Incorrect.</p>","null","","",""
"","","","","","html-keyboard-response","50","2.0.0","141912","p7th3x7jkkh","null","<div style=""font-size: 75px;"">+</div>","null","","",""
"","","","","","image-keyboard-response","51","2.0.0","143282","p7th3x7jkkh","1361","stimuli/14_150_R.jpg","f","response","j","false"
"","","","","","html-keyboard-response","52","2.0.0","143786","p7th3x7jkkh","null","<p style=""border: 5px solid red;"">Incorrect.</p>","null","","",""
"","","","","","html-keyboard-response","53","2.0.0","144790","p7th3x7jkkh","null","<div style=""font-size: 75px;"">+</div>","null","","",""
"","","","","","image-keyboard-response","54","2.0.0","146066","p7th3x7jkkh","1267","stimuli/7_150.jpg","f","response","f","true"
"","","","","","html-keyboard-response","55","2.0.0","146567","p7th3x7jkkh","null","<p style=""border: 5px solid green;"">Correct!</p>","null","","",""
"","","","","","html-keyboard-response","56","2.0.0","147572","p7th3x7jkkh","null","<div style=""font-size: 75px;"">+</div>","null","","",""
"","","","","","image-keyboard-response","57","2.0.0","150546","p7th3x7jkkh","2964","stimuli/26_100.jpg","f","response","f","true"
"","","","","","html-keyboard-response","58","2.0.0","151048","p7th3x7jkkh","null","<p style=""border: 5px solid green;"">Correct!</p>","null","","",""
"","","","","","html-keyboard-response","59","2.0.0","152051","p7th3x7jkkh","null","<div style=""font-size: 75px;"">+</div>","null","","",""
"","","","","","image-keyboard-response","60","2.0.0","153771","p7th3x7jkkh","1710","stimuli/12_100.jpg","f","response","f","true"
"","","","","","html-keyboard-response","61","2.0.0","154274","p7th3x7jkkh","null","<p style=""border: 5px solid green;"">Correct!</p>","null","","",""
"","","","","","html-keyboard-response","62","2.0.0","155278","p7th3x7jkkh","null","<div style=""font-size: 75px;"">+</div>","null","","",""
"","","","","","image-keyboard-response","63","2.0.0","156836","p7th3x7jkkh","1548","stimuli/17_150_R.jpg","f","response","j","false"
"","","","","","html-keyboard-response","64","2.0.0","157339","p7th3x7jkkh","null","<p style=""border: 5px solid red;"">Incorrect.</p>","null","","",""
"","","","","","html-keyboard-response","65","2.0.0","158344","p7th3x7jkkh","null","<div style=""font-size: 75px;"">+</div>","null","","",""
"","","","","","image-keyboard-response","66","2.0.0","159455","p7th3x7jkkh","1105","stimuli/4_0_R.jpg","f","response","j","false"
"","","","","","html-keyboard-response","67","2.0.0","159958","p7th3x7jkkh","null","<p style=""border: 5px solid red;"">Incorrect.</p>","null","","",""
"","","","","","html-keyboard-response","68","2.0.0","160962","p7th3x7jkkh","null","<div style=""font-size: 75px;"">+</div>","null","","",""
"","","","","","image-keyboard-response","69","2.0.0","162198","p7th3x7jkkh","1228","stimuli/30_50_R.jpg","f","response","j","false"
"","","","","","html-keyboard-response","70","2.0.0","162701","p7th3x7jkkh","null","<p style=""border: 5px solid red;"">Incorrect.</p>","null","","",""
"","","","","","html-keyboard-response","71","2.0.0","163706","p7th3x7jkkh","null","<div style=""font-size: 75px;"">+</div>","null","","",""
"","","","","","image-keyboard-response","72","2.0.0","165457","p7th3x7jkkh","1742","stimuli/9_0_R.jpg","f","response","j","false"
"","","","","","html-keyboard-response","73","2.0.0","165960","p7th3x7jkkh","null","<p style=""border: 5px solid red;"">Incorrect.</p>","null","","",""
"","","","","","html-keyboard-response","74","2.0.0","166964","p7th3x7jkkh","null","<div style=""font-size: 75px;"">+</div>","null","","",""
"","","","","","image-keyboard-response","75","2.0.0","168052","p7th3x7jkkh","1078","stimuli/40_0_R.jpg","f","response","j","false"
"","","","","","html-keyboard-response","76","2.0.0","168556","p7th3x7jkkh","null","<p style=""border: 5px solid red;"">Incorrect.</p>","null","","",""
"","","","","","html-keyboard-response","77","2.0.0","169560","p7th3x7jkkh","null","<div style=""font-size: 75px;"">+</div>","null","","",""
"","","","","","image-keyboard-response","78","2.0.0","170347","p7th3x7jkkh","780","stimuli/7_50_R.jpg","f","response","j","false"
"","","","","","html-keyboard-response","79","2.0.0","170851","p7th3x7jkkh","null","<p style=""border: 5px solid red;"">Incorrect.</p>","null","","",""
"","","","","","html-keyboard-response","80","2.0.0","171854","p7th3x7jkkh","null","<div style=""font-size: 75px;"">+</div>","null","","",""
"","","","","","image-keyboard-response","81","2.0.0","173766","p7th3x7jkkh","1902","stimuli/13_100_R.jpg","f","response","j","false"
"","","","","","html-keyboard-response","82","2.0.0","174269","p7th3x7jkkh","null","<p style=""border: 5px solid red;"">Incorrect.</p>","null","","",""
"","","","","","html-keyboard-response","83","2.0.0","175273","p7th3x7jkkh","null","<div style=""font-size: 75px;"">+</div>","null","","",""
"","","","","","image-keyboard-response","84","2.0.0","177166","p7th3x7jkkh","1884","stimuli/45_50.jpg","f","response","f","true"
"","","","","","html-keyboard-response","85","2.0.0","177671","p7th3x7jkkh","null","<p style=""border: 5px solid green;"">Correct!</p>","null","","",""
"","","","","","html-keyboard-response","86","2.0.0","178675","p7th3x7jkkh","null","<div style=""font-size: 75px;"">+</div>","null","","",""
"","","","","","image-keyboard-response","87","2.0.0","180427","p7th3x7jkkh","1744","stimuli/25_150.jpg","f","response","f","true"
"","","","","","html-keyboard-response","88","2.0.0","180930","p7th3x7jkkh","null","<p style=""border: 5px solid green;"">Correct!</p>","null","","",""
"","","","","","html-keyboard-response","89","2.0.0","181934","p7th3x7jkkh","null","<div style=""font-size: 75px;"">+</div>","null","","",""
"","","","","","image-keyboard-response","90","2.0.0","183223","p7th3x7jkkh","1281","stimuli/33_50.jpg","f","response","f","true"
"","","","","","html-keyboard-response","91","2.0.0","183726","p7th3x7jkkh","null","<p style=""border: 5px solid green;"">Correct!</p>","null","","",""
"","","","","","html-keyboard-response","92","2.0.0","184729","p7th3x7jkkh","null","<div style=""font-size: 75px;"">+</div>","null","","",""
"","","","","","image-keyboard-response","93","2.0.0","187158","p7th3x7jkkh","2418","stimuli/23_100.jpg","j","response","f","false"
"","","","","","html-keyboard-response","94","2.0.0","187661","p7th3x7jkkh","null","<p style=""border: 5px solid red;"">Incorrect.</p>","null","","",""
"","","","","","html-keyboard-response","95","2.0.0","188665","p7th3x7jkkh","null","<div style=""font-size: 75px;"">+</div>","null","","",""
"","","","","","image-keyboard-response","96","2.0.0","191211","p7th3x7jkkh","2537","stimuli/21_100_R.jpg","f","response","j","false"
"","","","","","html-keyboard-response","97","2.0.0","191714","p7th3x7jkkh","null","<p style=""border: 5px solid red;"">Incorrect.</p>","null","","",""
"","","","","","html-keyboard-response","98","2.0.0","192717","p7th3x7jkkh","null","<div style=""font-size: 75px;"">+</div>","null","","",""
"","","","","","image-keyboard-response","99","2.0.0","198108","p7th3x7jkkh","5380","stimuli/34_0.jpg","f","response","f","true"
"","","","","","html-keyboard-response","100","2.0.0","198611","p7th3x7jkkh","null","<p style=""border: 5px solid green;"">Correct!</p>","null","","",""
"","","","","","html-keyboard-response","101","2.0.0","199615","p7th3x7jkkh","null","<div style=""font-size: 75px;"">+</div>","null","","",""
"","","","","","image-keyboard-response","102","2.0.0","200955","p7th3x7jkkh","1331","stimuli/41_100.jpg","f","response","f","true"
"","","","","","html-keyboard-response","103","2.0.0","201458","p7th3x7jkkh","null","<p style=""border: 5px solid green;"">Correct!</p>","null","","",""
"","","","","","html-keyboard-response","104","2.0.0","202462","p7th3x7jkkh","null","<div style=""font-size: 75px;"">+</div>","null","","",""
"","","","","","image-keyboard-response","105","2.0.0","205116","p7th3x7jkkh","2646","stimuli/2_50_R.jpg","j","response","j","true"
"","","","","","html-keyboard-response","106","2.0.0","205619","p7th3x7jkkh","null","<p style=""border: 5px solid green;"">Correct!</p>","null","","",""
"","","","","","html-keyboard-response","107","2.0.0","206623","p7th3x7jkkh","null","<div style=""font-size: 75px;"">+</div>","null","","",""
"","","","","","image-keyboard-response","108","2.0.0","209207","p7th3x7jkkh","2574","stimuli/22_150.jpg","f","response","f","true"
"","","","","","html-keyboard-response","109","2.0.0","209709","p7th3x7jkkh","null","<p style=""border: 5px solid green;"">Correct!</p>","null","","",""
"","","","","","html-keyboard-response","110","2.0.0","210713","p7th3x7jkkh","null","<div style=""font-size: 75px;"">+</div>","null","","",""
"","","","","","image-keyboard-response","111","2.0.0","213432","p7th3x7jkkh","2710","stimuli/11_0_R.jpg","f","response","j","false"
"","","","","","html-keyboard-response","112","2.0.0","213936","p7th3x7jkkh","null","<p style=""border: 5px solid red;"">Incorrect.</p>","null","","",""
"","","","","","html-keyboard-response","113","2.0.0","214940","p7th3x7jkkh","null","<div style=""font-size: 75px;"">+</div>","null","","",""
"","","","","","image-keyboard-response","114","2.0.0","217991","p7th3x7jkkh","3042","stimuli/28_150_R.jpg","f","response","j","false"
"","","","","","html-keyboard-response","115","2.0.0","218494","p7th3x7jkkh","null","<p style=""border: 5px solid red;"">Incorrect.</p>","null","","",""
"","","","","","html-keyboard-response","116","2.0.0","219498","p7th3x7jkkh","null","<div style=""font-size: 75px;"">+</div>","null","","",""
"","","","","","image-keyboard-response","117","2.0.0","221089","p7th3x7jkkh","1586","stimuli/3_100_R.jpg","j","response","j","true"
"","","","","","html-keyboard-response","118","2.0.0","221592","p7th3x7jkkh","null","<p style=""border: 5px solid green;"">Correct!</p>","null","","",""
"","","","","","html-keyboard-response","119","2.0.0","222596","p7th3x7jkkh","null","<div style=""font-size: 75px;"">+</div>","null","","",""
"","","","","","image-keyboard-response","120","2.0.0","225011","p7th3x7jkkh","2406","stimuli/32_50.jpg","j","response","f","false"
"","","","","","html-keyboard-response","121","2.0.0","225514","p7th3x7jkkh","null","<p style=""border: 5px solid red;"">Incorrect.</p>","null","","",""
"","","","","","html-keyboard-response","122","2.0.0","226518","p7th3x7jkkh","null","<div style=""font-size: 75px;"">+</div>","null","","",""
"","","","","","image-keyboard-response","123","2.0.0","229121","p7th3x7jkkh","2597","stimuli/3_100.jpg","j","response","f","false"
"","","","","","html-keyboard-response","124","2.0.0","229624","p7th3x7jkkh","null","<p style=""border: 5px solid red;"">Incorrect.</p>","null","","",""
"","","","","","html-keyboard-response","125","2.0.0","230628","p7th3x7jkkh","null","<div style=""font-size: 75px;"">+</div>","null","","",""
"","","","","","image-keyboard-response","126","2.0.0","231759","p7th3x7jkkh","1125","stimuli/22_50.jpg","j","response","f","false"
"","","","","","html-keyboard-response","127","2.0.0","232263","p7th3x7jkkh","null","<p style=""border: 5px solid red;"">Incorrect.</p>","null","","",""
"","","","","","html-keyboard-response","128","2.0.0","233268","p7th3x7jkkh","null","<div style=""font-size: 75px;"">+</div>","null","","",""
"","","","","","image-keyboard-response","129","2.0.0","234132","p7th3x7jkkh","856","stimuli/38_150_R.jpg","f","response","j","false"
"","","","","","html-keyboard-response","130","2.0.0","234636","p7th3x7jkkh","null","<p style=""border: 5px solid red;"">Incorrect.</p>","null","","",""
"","","","","","html-keyboard-response","131","2.0.0","235640","p7th3x7jkkh","null","<div style=""font-size: 75px;"">+</div>","null","","",""
"","","","","","image-keyboard-response","132","2.0.0","236246","p7th3x7jkkh","596","stimuli/10_100.jpg","f","response","f","true"
"","","","","","html-keyboard-response","133","2.0.0","236749","p7th3x7jkkh","null","<p style=""border: 5px solid green;"">Correct!</p>","null","","",""
"","","","","","html-keyboard-response","134","2.0.0","237754","p7th3x7jkkh","null","<div style=""font-size: 75px;"">+</div>","null","","",""
"","","","","","image-keyboard-response","135","2.0.0","238676","p7th3x7jkkh","912","stimuli/9_50.jpg","f","response","f","true"
"","","","","","html-keyboard-response","136","2.0.0","239179","p7th3x7jkkh","null","<p style=""border: 5px solid green;"">Correct!</p>","null","","",""
"","","","","","html-keyboard-response","137","2.0.0","240182","p7th3x7jkkh","null","<div style=""font-size: 75px;"">+</div>","null","","",""
"","","","","","image-keyboard-response","138","2.0.0","241711","p7th3x7jkkh","1518","stimuli/23_0_R.jpg","j","response","j","true"
"","","","","","html-keyboard-response","139","2.0.0","242214","p7th3x7jkkh","null","<p style=""border: 5px solid green;"">Correct!</p>","null","","",""
"","","","","","html-keyboard-response","140","2.0.0","243219","p7th3x7jkkh","null","<div style=""font-size: 75px;"">+</div>","null","","",""
"","","","","","image-keyboard-response","141","2.0.0","244118","p7th3x7jkkh","890","stimuli/8_0_R.jpg","j","response","j","true"
"","","","","","html-keyboard-response","142","2.0.0","244621","p7th3x7jkkh","null","<p style=""border: 5px solid green;"">Correct!</p>","null","","",""
"","","","","","html-keyboard-response","143","2.0.0","245625","p7th3x7jkkh","null","<div style=""font-size: 75px;"">+</div>","null","","",""
"","","","","","image-keyboard-response","144","2.0.0","246799","p7th3x7jkkh","1164","stimuli/5_0_R.jpg","f","response","j","false"
"","","","","","html-keyboard-response","145","2.0.0","247302","p7th3x7jkkh","null","<p style=""border: 5px solid red;"">Incorrect.</p>","null","","",""
"","","","","","html-keyboard-response","146","2.0.0","248306","p7th3x7jkkh","null","<div style=""font-size: 75px;"">+</div>","null","","",""
"","","","","","image-keyboard-response","147","2.0.0","249229","p7th3x7jkkh","913","stimuli/16_150.jpg","j","response","f","false"
"","","","","","html-keyboard-response","148","2.0.0","249732","p7th3x7jkkh","null","<p style=""border: 5px solid red;"">Incorrect.</p>","null","","",""
"","","","","","html-keyboard-response","149","2.0.0","279737","p7th3x7jkkh","null","<p> Take a break! Experiment continues in 30 seconds . </p>","null","","",""
"","","","","","html-keyboard-response","150","2.0.0","280742","p7th3x7jkkh","null","<div style=""font-size: 75px;"">+</div>","null","","",""
"","","","","","image-keyboard-response","151","2.0.0","282280","p7th3x7jkkh","1529","stimuli/33_0_R.jpg","f","response","j","false"
"","","","","","html-keyboard-response","152","2.0.0","282784","p7th3x7jkkh","null","<p style=""border: 5px solid red;"">Incorrect.</p>","null","","",""
"","","","","","html-keyboard-response","153","2.0.0","283789","p7th3x7jkkh","null","<div style=""font-size: 75px;"">+</div>","null","","",""
"","","","","","image-keyboard-response","154","2.0.0","284511","p7th3x7jkkh","711","stimuli/18_0_R.jpg","f","response","j","false"
"","","","","","html-keyboard-response","155","2.0.0","285014","p7th3x7jkkh","null","<p style=""border: 5px solid red;"">Incorrect.</p>","null","","",""
"","","","","","html-keyboard-response","156","2.0.0","286017","p7th3x7jkkh","null","<div style=""font-size: 75px;"">+</div>","null","","",""
"","","","","","image-keyboard-response","157","2.0.0","286844","p7th3x7jkkh","817","stimuli/28_150.jpg","j","response","f","false"
"","","","","","html-keyboard-response","158","2.0.0","287347","p7th3x7jkkh","null","<p style=""border: 5px solid red;"">Incorrect.</p>","null","","",""
"","","","","","html-keyboard-response","159","2.0.0","288352","p7th3x7jkkh","null","<div style=""font-size: 75px;"">+</div>","null","","",""
"","","","","","image-keyboard-response","160","2.0.0","289891","p7th3x7jkkh","1532","stimuli/48_150_R.jpg","f","response","j","false"
"","","","","","html-keyboard-response","161","2.0.0","290394","p7th3x7jkkh","null","<p style=""border: 5px solid red;"">Incorrect.</p>","null","","",""
"","","","","","html-keyboard-response","162","2.0.0","291398","p7th3x7jkkh","null","<div style=""font-size: 75px;"">+</div>","null","","",""
"","","","","","image-keyboard-response","163","2.0.0","297473","p7th3x7jkkh","6066","stimuli/10_150_R.jpg","f","response","j","false"
"","","","","","html-keyboard-response","164","2.0.0","297977","p7th3x7jkkh","null","<p style=""border: 5px solid red;"">Incorrect.</p>","null","","",""
"","","","","","html-keyboard-response","165","2.0.0","298980","p7th3x7jkkh","null","<div style=""font-size: 75px;"">+</div>","null","","",""
"","","","","","image-keyboard-response","166","2.0.0","299872","p7th3x7jkkh","887","stimuli/36_150_R.jpg","f","response","j","false"
"","","","","","html-keyboard-response","167","2.0.0","300375","p7th3x7jkkh","null","<p style=""border: 5px solid red;"">Incorrect.</p>","null","","",""
"","","","","","html-keyboard-response","168","2.0.0","301378","p7th3x7jkkh","null","<div style=""font-size: 75px;"">+</div>","null","","",""
"","","","","","image-keyboard-response","169","2.0.0","301750","p7th3x7jkkh","362","stimuli/31_100_R.jpg","j","response","j","true"
"","","","","","html-keyboard-response","170","2.0.0","302253","p7th3x7jkkh","null","<p style=""border: 5px solid green;"">Correct!</p>","null","","",""
"","","","","","html-keyboard-response","171","2.0.0","303257","p7th3x7jkkh","null","<div style=""font-size: 75px;"">+</div>","null","","",""
"","","","","","image-keyboard-response","172","2.0.0","306253","p7th3x7jkkh","2990","stimuli/41_0_R.jpg","f","response","j","false"
"","","","","","html-keyboard-response","173","2.0.0","306756","p7th3x7jkkh","null","<p style=""border: 5px solid red;"">Incorrect.</p>","null","","",""
"","","","","","html-keyboard-response","174","2.0.0","307760","p7th3x7jkkh","null","<div style=""font-size: 75px;"">+</div>","null","","",""
"","","","","","image-keyboard-response","175","2.0.0","308889","p7th3x7jkkh","1119","stimuli/24_50_R.jpg","f","response","j","false"
"","","","","","html-keyboard-response","176","2.0.0","309392","p7th3x7jkkh","null","<p style=""border: 5px solid red;"">Incorrect.</p>","null","","",""
"","","","","","html-keyboard-response","177","2.0.0","310396","p7th3x7jkkh","null","<div style=""font-size: 75px;"">+</div>","null","","",""
"","","","","","image-keyboard-response","178","2.0.0","311360","p7th3x7jkkh","954","stimuli/22_0.jpg","f","response","f","true"
"","","","","","html-keyboard-response","179","2.0.0","311863","p7th3x7jkkh","null","<p style=""border: 5px solid green;"">Correct!</p>","null","","",""
"","","","","","html-keyboard-response","180","2.0.0","312867","p7th3x7jkkh","null","<div style=""font-size: 75px;"">+</div>","null","","",""
"","","","","","image-keyboard-response","181","2.0.0","313476","p7th3x7jkkh","603","stimuli/11_0.jpg","f","response","f","true"
"","","","","","html-keyboard-response","182","2.0.0","313980","p7th3x7jkkh","null","<p style=""border: 5px solid green;"">Correct!</p>","null","","",""
"","","","","","html-keyboard-response","183","2.0.0","314983","p7th3x7jkkh","null","<div style=""font-size: 75px;"">+</div>","null","","",""
"","","","","","image-keyboard-response","184","2.0.0","315725","p7th3x7jkkh","736","stimuli/21_0.jpg","f","response","f","true"
"","","","","","html-keyboard-response","185","2.0.0","316227","p7th3x7jkkh","null","<p style=""border: 5px solid green;"">Correct!</p>","null","","",""
"","","","","","html-keyboard-response","186","2.0.0","317230","p7th3x7jkkh","null","<div style=""font-size: 75px;"">+</div>","null","","",""
"","","","","","image-keyboard-response","187","2.0.0","317928","p7th3x7jkkh","691","stimuli/44_100_R.jpg","j","response","j","true"
"","","","","","html-keyboard-response","188","2.0.0","318431","p7th3x7jkkh","null","<p style=""border: 5px solid green;"">Correct!</p>","null","","",""
"","","","","","html-keyboard-response","189","2.0.0","319436","p7th3x7jkkh","null","<div style=""font-size: 75px;"">+</div>","null","","",""
"","","","","","image-keyboard-response","190","2.0.0","323721","p7th3x7jkkh","4276","stimuli/24_100.jpg","f","response","f","true"
"","","","","","html-keyboard-response","191","2.0.0","324224","p7th3x7jkkh","null","<p style=""border: 5px solid green;"">Correct!</p>","null","","",""
"","","","","","html-keyboard-response","192","2.0.0","325228","p7th3x7jkkh","null","<div style=""font-size: 75px;"">+</div>","null","","",""
"","","","","","image-keyboard-response","193","2.0.0","326396","p7th3x7jkkh","1160","stimuli/32_100_R.jpg","f","response","j","false"
"","","","","","html-keyboard-response","194","2.0.0","326900","p7th3x7jkkh","null","<p style=""border: 5px solid red;"">Incorrect.</p>","null","","",""
"","","","","","html-keyboard-response","195","2.0.0","327904","p7th3x7jkkh","null","<div style=""font-size: 75px;"">+</div>","null","","",""
"","","","","","image-keyboard-response","196","2.0.0","328546","p7th3x7jkkh","633","stimuli/6_100.jpg","f","response","f","true"
"","","","","","html-keyboard-response","197","2.0.0","329049","p7th3x7jkkh","null","<p style=""border: 5px solid green;"">Correct!</p>","null","","",""
"","","","","","html-keyboard-response","198","2.0.0","330055","p7th3x7jkkh","null","<div style=""font-size: 75px;"">+</div>","null","","",""
"","","","","","image-keyboard-response","199","2.0.0","332059","p7th3x7jkkh","1997","stimuli/36_100.jpg","f","response","f","true"
"","","","","","html-keyboard-response","200","2.0.0","332562","p7th3x7jkkh","null","<p style=""border: 5px solid green;"">Correct!</p>","null","","",""
"","","","","","html-keyboard-response","201","2.0.0","333567","p7th3x7jkkh","null","<div style=""font-size: 75px;"">+</div>","null","","",""
"","","","","","image-keyboard-response","202","2.0.0","334558","p7th3x7jkkh","981","stimuli/17_100_R.jpg","f","response","j","false"
"","","","","","html-keyboard-response","203","2.0.0","335060","p7th3x7jkkh","null","<p style=""border: 5px solid red;"">Incorrect.</p>","null","","",""
"","","","","","html-keyboard-response","204","2.0.0","336064","p7th3x7jkkh","null","<div style=""font-size: 75px;"">+</div>","null","","",""
"","","","","","image-keyboard-response","205","2.0.0","336312","p7th3x7jkkh","238","stimuli/39_50_R.jpg","j","response","j","true"
"","","","","","html-keyboard-response","206","2.0.0","336814","p7th3x7jkkh","null","<p style=""border: 5px solid green;"">Correct!</p>","null","","",""
"","","","","","html-keyboard-response","207","2.0.0","337818","p7th3x7jkkh","null","<div style=""font-size: 75px;"">+</div>","null","","",""
"","","","","","image-keyboard-response","208","2.0.0","337850","p7th3x7jkkh","23","stimuli/37_50.jpg","f","response","f","true"
"","","","","","html-keyboard-response","209","2.0.0","338352","p7th3x7jkkh","null","<p style=""border: 5px solid green;"">Correct!</p>","null","","",""
"","","","","","html-keyboard-response","210","2.0.0","339357","p7th3x7jkkh","null","<div style=""font-size: 75px;"">+</div>","null","","",""
"","","","","","image-keyboard-response","211","2.0.0","339399","p7th3x7jkkh","36","stimuli/25_150_R.jpg","j","response","j","true"
"","","","","","html-keyboard-response","212","2.0.0","339901","p7th3x7jkkh","null","<p style=""border: 5px solid green;"">Correct!</p>","null","","",""
"","","","","","html-keyboard-response","213","2.0.0","340904","p7th3x7jkkh","null","<div style=""font-size: 75px;"">+</div>","null","","",""
"","","","","","image-keyboard-response","214","2.0.0","341309","p7th3x7jkkh","396","stimuli/39_150.jpg","j","response","f","false"
"","","","","","html-keyboard-response","215","2.0.0","341812","p7th3x7jkkh","null","<p style=""border: 5px solid red;"">Incorrect.</p>","null","","",""
"","","","","","html-keyboard-response","216","2.0.0","342816","p7th3x7jkkh","null","<div style=""font-size: 75px;"">+</div>","null","","",""
"","","","","","image-keyboard-response","217","2.0.0","343159","p7th3x7jkkh","334","stimuli/42_100_R.jpg","f","response","j","false"
"","","","","","html-keyboard-response","218","2.0.0","343662","p7th3x7jkkh","null","<p style=""border: 5px solid red;"">Incorrect.</p>","null","","",""
"","","","","","html-keyboard-response","219","2.0.0","344665","p7th3x7jkkh","null","<div style=""font-size: 75px;"">+</div>","null","","",""
"","","","","","image-keyboard-response","220","2.0.0","345048","p7th3x7jkkh","373","stimuli/28_50_R.jpg","j","response","j","true"
"","","","","","html-keyboard-response","221","2.0.0","345551","p7th3x7jkkh","null","<p style=""border: 5px solid green;"">Correct!</p>","null","","",""
"","","","","","html-keyboard-response","222","2.0.0","346556","p7th3x7jkkh","null","<div style=""font-size: 75px;"">+</div>","null","","",""
"","","","","","image-keyboard-response","223","2.0.0","346842","p7th3x7jkkh","277","stimuli/3_0.jpg","j","response","f","false"
"","","","","","html-keyboard-response","224","2.0.0","347345","p7th3x7jkkh","null","<p style=""border: 5px solid red;"">Incorrect.</p>","null","","",""
"","","","","","html-keyboard-response","225","2.0.0","348348","p7th3x7jkkh","null","<div style=""font-size: 75px;"">+</div>","null","","",""
"","","","","","image-keyboard-response","226","2.0.0","348780","p7th3x7jkkh","424","stimuli/3_50_R.jpg","f","response","j","false"
"","","","","","html-keyboard-response","227","2.0.0","349283","p7th3x7jkkh","null","<p style=""border: 5px solid red;"">Incorrect.</p>","null","","",""
"","","","","","html-keyboard-response","228","2.0.0","350288","p7th3x7jkkh","null","<div style=""font-size: 75px;"">+</div>","null","","",""
"","","","","","image-keyboard-response","229","2.0.0","350513","p7th3x7jkkh","217","stimuli/1_50.jpg","f","response","f","true"
"","","","","","html-keyboard-response","230","2.0.0","351016","p7th3x7jkkh","null","<p style=""border: 5px solid green;"">Correct!</p>","null","","",""
"","","","","","html-keyboard-response","231","2.0.0","352020","p7th3x7jkkh","null","<div style=""font-size: 75px;"">+</div>","null","","",""
"","","","","","image-keyboard-response","232","2.0.0","352259","p7th3x7jkkh","230","stimuli/4_100.jpg","f","response","f","true"
"","","","","","html-keyboard-response","233","2.0.0","352761","p7th3x7jkkh","null","<p style=""border: 5px solid green;"">Correct!</p>","null","","",""
"","","","","","html-keyboard-response","234","2.0.0","353765","p7th3x7jkkh","null","<div style=""font-size: 75px;"">+</div>","null","","",""
"","","","","","image-keyboard-response","235","2.0.0","353994","p7th3x7jkkh","220","stimuli/12_150_R.jpg","f","response","j","false"
"","","","","","html-keyboard-response","236","2.0.0","354497","p7th3x7jkkh","null","<p style=""border: 5px solid red;"">Incorrect.</p>","null","","",""
"","","","","","html-keyboard-response","237","2.0.0","355501","p7th3x7jkkh","null","<div style=""font-size: 75px;"">+</div>","null","","",""
"","","","","","image-keyboard-response","238","2.0.0","355844","p7th3x7jkkh","333","stimuli/17_0.jpg","j","response","f","false"
"","","","","","html-keyboard-response","239","2.0.0","356347","p7th3x7jkkh","null","<p style=""border: 5px solid red;"">Incorrect.</p>","null","","",""
"","","","","","html-keyboard-response","240","2.0.0","357351","p7th3x7jkkh","null","<div style=""font-size: 75px;"">+</div>","null","","",""
"","","","","","image-keyboard-response","241","2.0.0","357791","p7th3x7jkkh","431","stimuli/42_50.jpg","j","response","f","false"
"","","","","","html-keyboard-response","242","2.0.0","358293","p7th3x7jkkh","null","<p style=""border: 5px solid red;"">Incorrect.</p>","null","","",""
"","","","","","html-keyboard-response","243","2.0.0","359297","p7th3x7jkkh","null","<div style=""font-size: 75px;"">+</div>","null","","",""
"","","","","","image-keyboard-response","244","2.0.0","360872","p7th3x7jkkh","1567","stimuli/4_0.jpg","j","response","f","false"
"","","","","","html-keyboard-response","245","2.0.0","361375","p7th3x7jkkh","null","<p style=""border: 5px solid red;"">Incorrect.</p>","null","","",""
"","","","","","html-keyboard-response","246","2.0.0","362377","p7th3x7jkkh","null","<div style=""font-size: 75px;"">+</div>","null","","",""
"","","","","","image-keyboard-response","247","2.0.0","362863","p7th3x7jkkh","476","stimuli/1_150.jpg","j","response","f","false"
"","","","","","html-keyboard-response","248","2.0.0","363365","p7th3x7jkkh","null","<p style=""border: 5px solid red;"">Incorrect.</p>","null","","",""
"","","","","","html-keyboard-response","249","2.0.0","364369","p7th3x7jkkh","null","<div style=""font-size: 75px;"">+</div>","null","","",""
"","","","","","image-keyboard-response","250","2.0.0","364808","p7th3x7jkkh","429","stimuli/20_0_R.jpg","f","response","j","false"
"","","","","","html-keyboard-response","251","2.0.0","365311","p7th3x7jkkh","null","<p style=""border: 5px solid red;"">Incorrect.</p>","null","","",""
"","","","","","html-keyboard-response","252","2.0.0","366314","p7th3x7jkkh","null","<div style=""font-size: 75px;"">+</div>","null","","",""
"","","","","","image-keyboard-response","253","2.0.0","366850","p7th3x7jkkh","527","stimuli/2_0_R.jpg","j","response","j","true"
"","","","","","html-keyboard-response","254","2.0.0","367354","p7th3x7jkkh","null","<p style=""border: 5px solid green;"">Correct!</p>","null","","",""
"","","","","","html-keyboard-response","255","2.0.0","368358","p7th3x7jkkh","null","<div style=""font-size: 75px;"">+</div>","null","","",""
"","","","","","image-keyboard-response","256","2.0.0","369179","p7th3x7jkkh","813","stimuli/30_150_R.jpg","j","response","j","true"
"","","","","","html-keyboard-response","257","2.0.0","369682","p7th3x7jkkh","null","<p style=""border: 5px solid green;"">Correct!</p>","null","","",""
"","","","","","html-keyboard-response","258","2.0.0","370686","p7th3x7jkkh","null","<div style=""font-size: 75px;"">+</div>","null","","",""
"","","","","","image-keyboard-response","259","2.0.0","373167","p7th3x7jkkh","2472","stimuli/35_50.jpg","f","response","f","true"
"","","","","","html-keyboard-response","260","2.0.0","373670","p7th3x7jkkh","null","<p style=""border: 5px solid green;"">Correct!</p>","null","","",""
"","","","","","html-keyboard-response","261","2.0.0","374674","p7th3x7jkkh","null","<div style=""font-size: 75px;"">+</div>","null","","",""
"","","","","","image-keyboard-response","262","2.0.0","375933","p7th3x7jkkh","1249","stimuli/18_150.jpg","f","response","f","true"
"","","","","","html-keyboard-response","263","2.0.0","376436","p7th3x7jkkh","null","<p style=""border: 5px solid green;"">Correct!</p>","null","","",""
"","","","","","html-keyboard-response","264","2.0.0","377439","p7th3x7jkkh","null","<div style=""font-size: 75px;"">+</div>","null","","",""
"","","","","","image-keyboard-response","265","2.0.0","382222","p7th3x7jkkh","4773","stimuli/20_0.jpg","f","response","f","true"
"","","","","","html-keyboard-response","266","2.0.0","382725","p7th3x7jkkh","null","<p style=""border: 5px solid green;"">Correct!</p>","null","","",""
"","","","","","html-keyboard-response","267","2.0.0","383729","p7th3x7jkkh","null","<div style=""font-size: 75px;"">+</div>","null","","",""
"","","","","","image-keyboard-response","268","2.0.0","387204","p7th3x7jkkh","3466","stimuli/25_100_R.jpg","f","response","j","false"
"","","","","","html-keyboard-response","269","2.0.0","387706","p7th3x7jkkh","null","<p style=""border: 5px solid red;"">Incorrect.</p>","null","","",""
"","","","","","html-keyboard-response","270","2.0.0","388708","p7th3x7jkkh","null","<div style=""font-size: 75px;"">+</div>","null","","",""
"","","","","","image-keyboard-response","271","2.0.0","391776","p7th3x7jkkh","3059","stimuli/32_100.jpg","j","response","f","false"
"","","","","","html-keyboard-response","272","2.0.0","392279","p7th3x7jkkh","null","<p style=""border: 5px solid red;"">Incorrect.</p>","null","","",""
"","","","","","html-keyboard-response","273","2.0.0","393283","p7th3x7jkkh","null","<div style=""font-size: 75px;"">+</div>","null","","",""
"","","","","","image-keyboard-response","274","2.0.0","396925","p7th3x7jkkh","3632","stimuli/47_0.jpg","f","response","f","true"
"","","","","","html-keyboard-response","275","2.0.0","397429","p7th3x7jkkh","null","<p style=""border: 5px solid green;"">Correct!</p>","null","","",""
"","","","","","html-keyboard-response","276","2.0.0","398432","p7th3x7jkkh","null","<div style=""font-size: 75px;"">+</div>","null","","",""
"","","","","","image-keyboard-response","277","2.0.0","400151","p7th3x7jkkh","1709","stimuli/47_150.jpg","j","response","f","false"
"","","","","","html-keyboard-response","278","2.0.0","400655","p7th3x7jkkh","null","<p style=""border: 5px solid red;"">Incorrect.</p>","null","","",""
"","","","","","html-keyboard-response","279","2.0.0","401658","p7th3x7jkkh","null","<div style=""font-size: 75px;"">+</div>","null","","",""
"","","","","","image-keyboard-response","280","2.0.0","403064","p7th3x7jkkh","1396","stimuli/5_150_R.jpg","j","response","j","true"
"","","","","","html-keyboard-response","281","2.0.0","403567","p7th3x7jkkh","null","<p style=""border: 5px solid green;"">Correct!</p>","null","","",""
"","","","","","html-keyboard-response","282","2.0.0","404572","p7th3x7jkkh","null","<div style=""font-size: 75px;"">+</div>","null","","",""
"","","","","","image-keyboard-response","283","2.0.0","405613","p7th3x7jkkh","1031","stimuli/20_150.jpg","j","response","f","false"
"","","","","","html-keyboard-response","284","2.0.0","406116","p7th3x7jkkh","null","<p style=""border: 5px solid red;"">Incorrect.</p>","null","","",""
"","","","","","html-keyboard-response","285","2.0.0","407123","p7th3x7jkkh","null","<div style=""font-size: 75px;"">+</div>","null","","",""
"","","","","","image-keyboard-response","286","2.0.0","409818","p7th3x7jkkh","2691","stimuli/13_100.jpg","f","response","f","true"
"","","","","","html-keyboard-response","287","2.0.0","410321","p7th3x7jkkh","null","<p style=""border: 5px solid green;"">Correct!</p>","null","","",""
"","","","","","html-keyboard-response","288","2.0.0","411325","p7th3x7jkkh","null","<div style=""font-size: 75px;"">+</div>","null","","",""
"","","","","","image-keyboard-response","289","2.0.0","412534","p7th3x7jkkh","1200","stimuli/32_150.jpg","j","response","f","false"
"","","","","","html-keyboard-response","290","2.0.0","413037","p7th3x7jkkh","null","<p style=""border: 5px solid red;"">Incorrect.</p>","null","","",""
"","","","","","html-keyboard-response","291","2.0.0","414043","p7th3x7jkkh","null","<div style=""font-size: 75px;"">+</div>","null","","",""
"","","","","","image-keyboard-response","292","2.0.0","414856","p7th3x7jkkh","805","stimuli/45_0.jpg","f","response","f","true"
"","","","","","html-keyboard-response","293","2.0.0","415359","p7th3x7jkkh","null","<p style=""border: 5px solid green;"">Correct!</p>","null","","",""
"","","","","","html-keyboard-response","294","2.0.0","422725","p7th3x7jkkh","7363","<p>Thank you for participating!</p><p>Please press space to answer our survey.</p>"," ","","",""
"","","","","","survey-html-form","295","null","519588","p7th3x7jkkh","96860","","{""response_1"":""Clear and lively"",""response_2"":""Perfectly clear and lively as real seeing"",""response_3"":""Clear and lively"",""response_4"":""Clear and lively"",""response_5"":""Clear and lively"",""response_6"":""Clear and lively"",""response_7"":""Clear and lively"",""response_8"":""Clear and lively"",""response_9"":""Clear and lively"",""response_10"":""Clear and lively"",""response_11"":""Clear and lively"",""response_12"":""Clear and lively"",""response_13"":""Perfectly clear and lively as real seeing"",""response_14"":""Perfectly clear and lively as real seeing"",""response_15"":""Perfectly clear and lively as real seeing"",""response_16"":""Perfectly clear and lively as real seeing""}","","",""
"","","","","","survey-html-form","296","null","569118","p7th3x7jkkh","49528","","{""age"":""28"",""gender"":""prefer-not"",""education"":""some-college"",""handedness"":""ambidextrous"",""vision"":""normal"",""technical_difficulties"":""No"",""knowledge_check"":""Not exactly sure""}","","",""
