"success","timeout","failed_images","failed_audio","failed_video","trial_type","trial_index","plugin_version","time_elapsed","random_id","rt","stimulus","response","task","correct_response","correct"
"true","false","[]","[]","[]","preload","0","2.0.0","3430","p896h9bd2pd","","","","","",""
"true","","","","","fullscreen","1","2.0.0","11128","p896h9bd2pd","6694","","","","",""
"","","","","","html-keyboard-response","2","2.0.0","12670","p896h9bd2pd","1540","Welcome to the experiment. Press any key to begin."," ","","",""
"","","","","","survey-text","3","2.0.0","33228","p896h9bd2pd","20554","","{""participant_id"":""lion""}","","",""
"","","","","","html-keyboard-response","4","2.0.0","43225","p896h9bd2pd","9997","
        <p>Welcome to the experiment.</p>
        <p>In this task, you will see pairs of images.</p>
        <p>Your job is to determine whether the image on the right is a rotated version of the image on the left.</p>
        <p>Press the <strong>F</strong> key if the images are the same.</p>
        <p>Press the <strong>J</strong> key if the images are different.</p>
        <p>Press any key to begin.</p>
    "," ","","",""
"","","","","","html-keyboard-response","5","2.0.0","44229","p896h9bd2pd","null","<div style=""font-size: 75px;"">+</div>","null","","",""
"","","","","","image-keyboard-response","6","2.0.0","47675","p896h9bd2pd","3442","stimuli/35_100_R.jpg","j","response","j","true"
"","","","","","html-keyboard-response","7","2.0.0","48177","p896h9bd2pd","null","<p style=""border: 5px solid green;"">Correct!</p>","null","","",""
"","","","","","html-keyboard-response","8","2.0.0","49181","p896h9bd2pd","null","<div style=""font-size: 75px;"">+</div>","null","","",""
"","","","","","image-keyboard-response","9","2.0.0","50750","p896h9bd2pd","1567","stimuli/11_100_R.jpg","f","response","j","false"
"","","","","","html-keyboard-response","10","2.0.0","51252","p896h9bd2pd","null","<p style=""border: 5px solid red;"">Incorrect.</p>","null","","",""
"","","","","","html-keyboard-response","11","2.0.0","52255","p896h9bd2pd","null","<div style=""font-size: 75px;"">+</div>","null","","",""
"","","","","","image-keyboard-response","12","2.0.0","54448","p896h9bd2pd","2190","stimuli/29_0.jpg","j","response","f","false"
"","","","","","html-keyboard-response","13","2.0.0","54949","p896h9bd2pd","null","<p style=""border: 5px solid red;"">Incorrect.</p>","null","","",""
"","","","","","html-keyboard-response","14","2.0.0","55952","p896h9bd2pd","null","<div style=""font-size: 75px;"">+</div>","null","","",""
"","","","","","image-keyboard-response","15","2.0.0","59400","p896h9bd2pd","3446","stimuli/41_50.jpg","f","response","f","true"
"","","","","","html-keyboard-response","16","2.0.0","59902","p896h9bd2pd","null","<p style=""border: 5px solid green;"">Correct!</p>","null","","",""
"","","","","","html-keyboard-response","17","2.0.0","60904","p896h9bd2pd","null","<div style=""font-size: 75px;"">+</div>","null","","",""
"","","","","","image-keyboard-response","18","2.0.0","62919","p896h9bd2pd","2014","stimuli/30_50.jpg","f","response","f","true"
"","","","","","html-keyboard-response","19","2.0.0","63421","p896h9bd2pd","null","<p style=""border: 5px solid green;"">Correct!</p>","null","","",""
"","","","","","html-keyboard-response","20","2.0.0","64424","p896h9bd2pd","null","<div style=""font-size: 75px;"">+</div>","null","","",""
"","","","","","image-keyboard-response","21","2.0.0","66060","p896h9bd2pd","1634","stimuli/34_150_R.jpg","j","response","j","true"
"","","","","","html-keyboard-response","22","2.0.0","66561","p896h9bd2pd","null","<p style=""border: 5px solid green;"">Correct!</p>","null","","",""
"","","","","","html-keyboard-response","23","2.0.0","67570","p896h9bd2pd","null","<div style=""font-size: 75px;"">+</div>","null","","",""
"","","","","","image-keyboard-response","24","2.0.0","70919","p896h9bd2pd","3347","stimuli/44_100.jpg","f","response","f","true"
"","","","","","html-keyboard-response","25","2.0.0","71421","p896h9bd2pd","null","<p style=""border: 5px solid green;"">Correct!</p>","null","","",""
"","","","","","html-keyboard-response","26","2.0.0","72424","p896h9bd2pd","null","<div style=""font-size: 75px;"">+</div>","null","","",""
"","","","","","image-keyboard-response","27","2.0.0","75540","p896h9bd2pd","3115","stimuli/37_150_R.jpg","j","response","j","true"
"","","","","","html-keyboard-response","28","2.0.0","76042","p896h9bd2pd","null","<p style=""border: 5px solid green;"">Correct!</p>","null","","",""
"","","","","","html-keyboard-response","29","2.0.0","77045","p896h9bd2pd","null","<div style=""font-size: 75px;"">+</div>","null","","",""
"","","","","","image-keyboard-response","30","2.0.0","79036","p896h9bd2pd","1989","stimuli/1_50.jpg","f","response","f","true"
"","","","","","html-keyboard-response","31","2.0.0","79538","p896h9bd2pd","null","<p style=""border: 5px solid green;"">Correct!</p>","null","","",""
"","","","","","html-keyboard-response","32","2.0.0","80542","p896h9bd2pd","null","<div style=""font-size: 75px;"">+</div>","null","","",""
"","","","","","image-keyboard-response","33","2.0.0","83116","p896h9bd2pd","2572","stimuli/11_0_R.jpg","j","response","j","true"
"","","","","","html-keyboard-response","34","2.0.0","83618","p896h9bd2pd","null","<p style=""border: 5px solid green;"">Correct!</p>","null","","",""
"","","","","","html-keyboard-response","35","2.0.0","84621","p896h9bd2pd","null","<div style=""font-size: 75px;"">+</div>","null","","",""
"","","","","","image-keyboard-response","36","2.0.0","86183","p896h9bd2pd","1561","stimuli/35_50.jpg","f","response","f","true"
"","","","","","html-keyboard-response","37","2.0.0","86686","p896h9bd2pd","null","<p style=""border: 5px solid green;"">Correct!</p>","null","","",""
"","","","","","html-keyboard-response","38","2.0.0","87688","p896h9bd2pd","null","<div style=""font-size: 75px;"">+</div>","null","","",""
"","","","","","image-keyboard-response","39","2.0.0","91525","p896h9bd2pd","3835","stimuli/16_100_R.jpg","j","response","j","true"
"","","","","","html-keyboard-response","40","2.0.0","92027","p896h9bd2pd","null","<p style=""border: 5px solid green;"">Correct!</p>","null","","",""
"","","","","","html-keyboard-response","41","2.0.0","93029","p896h9bd2pd","null","<div style=""font-size: 75px;"">+</div>","null","","",""
"","","","","","image-keyboard-response","42","2.0.0","94669","p896h9bd2pd","1638","stimuli/12_100.jpg","f","response","f","true"
"","","","","","html-keyboard-response","43","2.0.0","95171","p896h9bd2pd","null","<p style=""border: 5px solid green;"">Correct!</p>","null","","",""
"","","","","","html-keyboard-response","44","2.0.0","96172","p896h9bd2pd","null","<div style=""font-size: 75px;"">+</div>","null","","",""
"","","","","","image-keyboard-response","45","2.0.0","100319","p896h9bd2pd","4146","stimuli/23_150.jpg","j","response","f","false"
"","","","","","html-keyboard-response","46","2.0.0","100822","p896h9bd2pd","null","<p style=""border: 5px solid red;"">Incorrect.</p>","null","","",""
"","","","","","html-keyboard-response","47","2.0.0","101827","p896h9bd2pd","null","<div style=""font-size: 75px;"">+</div>","null","","",""
"","","","","","image-keyboard-response","48","2.0.0","105154","p896h9bd2pd","3326","stimuli/45_0_R.jpg","j","response","j","true"
"","","","","","html-keyboard-response","49","2.0.0","105656","p896h9bd2pd","null","<p style=""border: 5px solid green;"">Correct!</p>","null","","",""
"","","","","","html-keyboard-response","50","2.0.0","106660","p896h9bd2pd","null","<div style=""font-size: 75px;"">+</div>","null","","",""
"","","","","","image-keyboard-response","51","2.0.0","110218","p896h9bd2pd","3557","stimuli/21_100_R.jpg","j","response","j","true"
"","","","","","html-keyboard-response","52","2.0.0","110720","p896h9bd2pd","null","<p style=""border: 5px solid green;"">Correct!</p>","null","","",""
"","","","","","html-keyboard-response","53","2.0.0","111723","p896h9bd2pd","null","<div style=""font-size: 75px;"">+</div>","null","","",""
"","","","","","image-keyboard-response","54","2.0.0","114179","p896h9bd2pd","2453","stimuli/33_0_R.jpg","j","response","j","true"
"","","","","","html-keyboard-response","55","2.0.0","114680","p896h9bd2pd","null","<p style=""border: 5px solid green;"">Correct!</p>","null","","",""
"","","","","","html-keyboard-response","56","2.0.0","115682","p896h9bd2pd","null","<div style=""font-size: 75px;"">+</div>","null","","",""
"","","","","","image-keyboard-response","57","2.0.0","117344","p896h9bd2pd","1659","stimuli/11_0.jpg","f","response","f","true"
"","","","","","html-keyboard-response","58","2.0.0","117846","p896h9bd2pd","null","<p style=""border: 5px solid green;"">Correct!</p>","null","","",""
"","","","","","html-keyboard-response","59","2.0.0","118848","p896h9bd2pd","null","<div style=""font-size: 75px;"">+</div>","null","","",""
"","","","","","image-keyboard-response","60","2.0.0","119813","p896h9bd2pd","963","stimuli/47_0.jpg","f","response","f","true"
"","","","","","html-keyboard-response","61","2.0.0","120315","p896h9bd2pd","null","<p style=""border: 5px solid green;"">Correct!</p>","null","","",""
"","","","","","html-keyboard-response","62","2.0.0","121317","p896h9bd2pd","null","<div style=""font-size: 75px;"">+</div>","null","","",""
"","","","","","image-keyboard-response","63","2.0.0","122238","p896h9bd2pd","920","stimuli/2_0.jpg","f","response","f","true"
"","","","","","html-keyboard-response","64","2.0.0","122740","p896h9bd2pd","null","<p style=""border: 5px solid green;"">Correct!</p>","null","","",""
"","","","","","html-keyboard-response","65","2.0.0","123744","p896h9bd2pd","null","<div style=""font-size: 75px;"">+</div>","null","","",""
"","","","","","image-keyboard-response","66","2.0.0","126719","p896h9bd2pd","2974","stimuli/5_100.jpg","j","response","f","false"
"","","","","","html-keyboard-response","67","2.0.0","127221","p896h9bd2pd","null","<p style=""border: 5px solid red;"">Incorrect.</p>","null","","",""
"","","","","","html-keyboard-response","68","2.0.0","128224","p896h9bd2pd","null","<div style=""font-size: 75px;"">+</div>","null","","",""
"","","","","","image-keyboard-response","69","2.0.0","129940","p896h9bd2pd","1714","stimuli/1_100.jpg","f","response","f","true"
"","","","","","html-keyboard-response","70","2.0.0","130441","p896h9bd2pd","null","<p style=""border: 5px solid green;"">Correct!</p>","null","","",""
"","","","","","html-keyboard-response","71","2.0.0","131444","p896h9bd2pd","null","<div style=""font-size: 75px;"">+</div>","null","","",""
"","","","","","image-keyboard-response","72","2.0.0","134870","p896h9bd2pd","3424","stimuli/27_100.jpg","f","response","f","true"
"","","","","","html-keyboard-response","73","2.0.0","135372","p896h9bd2pd","null","<p style=""border: 5px solid green;"">Correct!</p>","null","","",""
"","","","","","html-keyboard-response","74","2.0.0","136376","p896h9bd2pd","null","<div style=""font-size: 75px;"">+</div>","null","","",""
"","","","","","image-keyboard-response","75","2.0.0","138838","p896h9bd2pd","2459","stimuli/7_100_R.jpg","j","response","j","true"
"","","","","","html-keyboard-response","76","2.0.0","139340","p896h9bd2pd","null","<p style=""border: 5px solid green;"">Correct!</p>","null","","",""
"","","","","","html-keyboard-response","77","2.0.0","140343","p896h9bd2pd","null","<div style=""font-size: 75px;"">+</div>","null","","",""
"","","","","","image-keyboard-response","78","2.0.0","145958","p896h9bd2pd","5614","stimuli/17_150.jpg","f","response","f","true"
"","","","","","html-keyboard-response","79","2.0.0","146460","p896h9bd2pd","null","<p style=""border: 5px solid green;"">Correct!</p>","null","","",""
"","","","","","html-keyboard-response","80","2.0.0","147461","p896h9bd2pd","null","<div style=""font-size: 75px;"">+</div>","null","","",""
"","","","","","image-keyboard-response","81","2.0.0","148675","p896h9bd2pd","1211","stimuli/4_0.jpg","f","response","f","true"
"","","","","","html-keyboard-response","82","2.0.0","149177","p896h9bd2pd","null","<p style=""border: 5px solid green;"">Correct!</p>","null","","",""
"","","","","","html-keyboard-response","83","2.0.0","150181","p896h9bd2pd","null","<div style=""font-size: 75px;"">+</div>","null","","",""
"","","","","","image-keyboard-response","84","2.0.0","152246","p896h9bd2pd","2063","stimuli/38_50_R.jpg","j","response","j","true"
"","","","","","html-keyboard-response","85","2.0.0","152747","p896h9bd2pd","null","<p style=""border: 5px solid green;"">Correct!</p>","null","","",""
"","","","","","html-keyboard-response","86","2.0.0","153750","p896h9bd2pd","null","<div style=""font-size: 75px;"">+</div>","null","","",""
"","","","","","image-keyboard-response","87","2.0.0","156643","p896h9bd2pd","2891","stimuli/26_150.jpg","f","response","f","true"
"","","","","","html-keyboard-response","88","2.0.0","157145","p896h9bd2pd","null","<p style=""border: 5px solid green;"">Correct!</p>","null","","",""
"","","","","","html-keyboard-response","89","2.0.0","158148","p896h9bd2pd","null","<div style=""font-size: 75px;"">+</div>","null","","",""
"","","","","","image-keyboard-response","90","2.0.0","161974","p896h9bd2pd","3824","stimuli/20_50.jpg","j","response","f","false"
"","","","","","html-keyboard-response","91","2.0.0","162476","p896h9bd2pd","null","<p style=""border: 5px solid red;"">Incorrect.</p>","null","","",""
"","","","","","html-keyboard-response","92","2.0.0","163480","p896h9bd2pd","null","<div style=""font-size: 75px;"">+</div>","null","","",""
"","","","","","image-keyboard-response","93","2.0.0","168430","p896h9bd2pd","4949","stimuli/27_150_R.jpg","j","response","j","true"
"","","","","","html-keyboard-response","94","2.0.0","168932","p896h9bd2pd","null","<p style=""border: 5px solid green;"">Correct!</p>","null","","",""
"","","","","","html-keyboard-response","95","2.0.0","169935","p896h9bd2pd","null","<div style=""font-size: 75px;"">+</div>","null","","",""
"","","","","","image-keyboard-response","96","2.0.0","172572","p896h9bd2pd","2635","stimuli/28_50_R.jpg","j","response","j","true"
"","","","","","html-keyboard-response","97","2.0.0","173074","p896h9bd2pd","null","<p style=""border: 5px solid green;"">Correct!</p>","null","","",""
"","","","","","html-keyboard-response","98","2.0.0","174077","p896h9bd2pd","null","<div style=""font-size: 75px;"">+</div>","null","","",""
"","","","","","image-keyboard-response","99","2.0.0","178284","p896h9bd2pd","4206","stimuli/4_50_R.jpg","f","response","j","false"
"","","","","","html-keyboard-response","100","2.0.0","178785","p896h9bd2pd","null","<p style=""border: 5px solid red;"">Incorrect.</p>","null","","",""
"","","","","","html-keyboard-response","101","2.0.0","179789","p896h9bd2pd","null","<div style=""font-size: 75px;"">+</div>","null","","",""
"","","","","","image-keyboard-response","102","2.0.0","183491","p896h9bd2pd","3700","stimuli/13_0_R.jpg","j","response","j","true"
"","","","","","html-keyboard-response","103","2.0.0","183993","p896h9bd2pd","null","<p style=""border: 5px solid green;"">Correct!</p>","null","","",""
"","","","","","html-keyboard-response","104","2.0.0","184995","p896h9bd2pd","null","<div style=""font-size: 75px;"">+</div>","null","","",""
"","","","","","image-keyboard-response","105","2.0.0","186690","p896h9bd2pd","1693","stimuli/8_50.jpg","f","response","f","true"
"","","","","","html-keyboard-response","106","2.0.0","187192","p896h9bd2pd","null","<p style=""border: 5px solid green;"">Correct!</p>","null","","",""
"","","","","","html-keyboard-response","107","2.0.0","188195","p896h9bd2pd","null","<div style=""font-size: 75px;"">+</div>","null","","",""
"","","","","","image-keyboard-response","108","2.0.0","189725","p896h9bd2pd","1528","stimuli/35_0.jpg","f","response","f","true"
"","","","","","html-keyboard-response","109","2.0.0","190227","p896h9bd2pd","null","<p style=""border: 5px solid green;"">Correct!</p>","null","","",""
"","","","","","html-keyboard-response","110","2.0.0","191229","p896h9bd2pd","null","<div style=""font-size: 75px;"">+</div>","null","","",""
"","","","","","image-keyboard-response","111","2.0.0","192883","p896h9bd2pd","1653","stimuli/11_50.jpg","f","response","f","true"
"","","","","","html-keyboard-response","112","2.0.0","193384","p896h9bd2pd","null","<p style=""border: 5px solid green;"">Correct!</p>","null","","",""
"","","","","","html-keyboard-response","113","2.0.0","194388","p896h9bd2pd","null","<div style=""font-size: 75px;"">+</div>","null","","",""
"","","","","","image-keyboard-response","114","2.0.0","195876","p896h9bd2pd","1482","stimuli/30_0_R.jpg","j","response","j","true"
"","","","","","html-keyboard-response","115","2.0.0","196380","p896h9bd2pd","null","<p style=""border: 5px solid green;"">Correct!</p>","null","","",""
"","","","","","html-keyboard-response","116","2.0.0","197383","p896h9bd2pd","null","<div style=""font-size: 75px;"">+</div>","null","","",""
"","","","","","image-keyboard-response","117","2.0.0","199595","p896h9bd2pd","2210","stimuli/17_100_R.jpg","f","response","j","false"
"","","","","","html-keyboard-response","118","2.0.0","200097","p896h9bd2pd","null","<p style=""border: 5px solid red;"">Incorrect.</p>","null","","",""
"","","","","","html-keyboard-response","119","2.0.0","201099","p896h9bd2pd","null","<div style=""font-size: 75px;"">+</div>","null","","",""
"","","","","","image-keyboard-response","120","2.0.0","204063","p896h9bd2pd","2962","stimuli/16_0_R.jpg","j","response","j","true"
"","","","","","html-keyboard-response","121","2.0.0","204566","p896h9bd2pd","null","<p style=""border: 5px solid green;"">Correct!</p>","null","","",""
"","","","","","html-keyboard-response","122","2.0.0","205568","p896h9bd2pd","null","<div style=""font-size: 75px;"">+</div>","null","","",""
"","","","","","image-keyboard-response","123","2.0.0","211121","p896h9bd2pd","5551","stimuli/21_50.jpg","f","response","f","true"
"","","","","","html-keyboard-response","124","2.0.0","211623","p896h9bd2pd","null","<p style=""border: 5px solid green;"">Correct!</p>","null","","",""
"","","","","","html-keyboard-response","125","2.0.0","212626","p896h9bd2pd","null","<div style=""font-size: 75px;"">+</div>","null","","",""
"","","","","","image-keyboard-response","126","2.0.0","214764","p896h9bd2pd","2135","stimuli/14_100.jpg","f","response","f","true"
"","","","","","html-keyboard-response","127","2.0.0","215267","p896h9bd2pd","null","<p style=""border: 5px solid green;"">Correct!</p>","null","","",""
"","","","","","html-keyboard-response","128","2.0.0","216270","p896h9bd2pd","null","<div style=""font-size: 75px;"">+</div>","null","","",""
"","","","","","image-keyboard-response","129","2.0.0","218516","p896h9bd2pd","2244","stimuli/11_100.jpg","f","response","f","true"
"","","","","","html-keyboard-response","130","2.0.0","219017","p896h9bd2pd","null","<p style=""border: 5px solid green;"">Correct!</p>","null","","",""
"","","","","","html-keyboard-response","131","2.0.0","220020","p896h9bd2pd","null","<div style=""font-size: 75px;"">+</div>","null","","",""
"","","","","","image-keyboard-response","132","2.0.0","221167","p896h9bd2pd","1145","stimuli/45_0.jpg","f","response","f","true"
"","","","","","html-keyboard-response","133","2.0.0","221669","p896h9bd2pd","null","<p style=""border: 5px solid green;"">Correct!</p>","null","","",""
"","","","","","html-keyboard-response","134","2.0.0","222672","p896h9bd2pd","null","<div style=""font-size: 75px;"">+</div>","null","","",""
"","","","","","image-keyboard-response","135","2.0.0","227835","p896h9bd2pd","5161","stimuli/48_150_R.jpg","j","response","j","true"
"","","","","","html-keyboard-response","136","2.0.0","228337","p896h9bd2pd","null","<p style=""border: 5px solid green;"">Correct!</p>","null","","",""
"","","","","","html-keyboard-response","137","2.0.0","229338","p896h9bd2pd","null","<div style=""font-size: 75px;"">+</div>","null","","",""
"","","","","","image-keyboard-response","138","2.0.0","233326","p896h9bd2pd","3986","stimuli/36_150.jpg","f","response","f","true"
"","","","","","html-keyboard-response","139","2.0.0","233828","p896h9bd2pd","null","<p style=""border: 5px solid green;"">Correct!</p>","null","","",""
"","","","","","html-keyboard-response","140","2.0.0","234831","p896h9bd2pd","null","<div style=""font-size: 75px;"">+</div>","null","","",""
"","","","","","image-keyboard-response","141","2.0.0","237061","p896h9bd2pd","2227","stimuli/24_150.jpg","f","response","f","true"
"","","","","","html-keyboard-response","142","2.0.0","237564","p896h9bd2pd","null","<p style=""border: 5px solid green;"">Correct!</p>","null","","",""
"","","","","","html-keyboard-response","143","2.0.0","238568","p896h9bd2pd","null","<div style=""font-size: 75px;"">+</div>","null","","",""
"","","","","","image-keyboard-response","144","2.0.0","241067","p896h9bd2pd","2497","stimuli/20_150.jpg","f","response","f","true"
"","","","","","html-keyboard-response","145","2.0.0","241570","p896h9bd2pd","null","<p style=""border: 5px solid green;"">Correct!</p>","null","","",""
"","","","","","html-keyboard-response","146","2.0.0","242574","p896h9bd2pd","null","<div style=""font-size: 75px;"">+</div>","null","","",""
"","","","","","image-keyboard-response","147","2.0.0","244376","p896h9bd2pd","1800","stimuli/15_150_R.jpg","f","response","j","false"
"","","","","","html-keyboard-response","148","2.0.0","244878","p896h9bd2pd","null","<p style=""border: 5px solid red;"">Incorrect.</p>","null","","",""
"","","","","","html-keyboard-response","149","2.0.0","274881","p896h9bd2pd","null","<p> Take a break! Experiment continues in 30 seconds . </p>","null","","",""
"","","","","","html-keyboard-response","150","2.0.0","275886","p896h9bd2pd","null","<div style=""font-size: 75px;"">+</div>","null","","",""
"","","","","","image-keyboard-response","151","2.0.0","278748","p896h9bd2pd","2860","stimuli/8_100_R.jpg","j","response","j","true"
"","","","","","html-keyboard-response","152","2.0.0","279250","p896h9bd2pd","null","<p style=""border: 5px solid green;"">Correct!</p>","null","","",""
"","","","","","html-keyboard-response","153","2.0.0","280253","p896h9bd2pd","null","<div style=""font-size: 75px;"">+</div>","null","","",""
"","","","","","image-keyboard-response","154","2.0.0","283041","p896h9bd2pd","2788","stimuli/24_50_R.jpg","j","response","j","true"
"","","","","","html-keyboard-response","155","2.0.0","283543","p896h9bd2pd","null","<p style=""border: 5px solid green;"">Correct!</p>","null","","",""
"","","","","","html-keyboard-response","156","2.0.0","284547","p896h9bd2pd","null","<div style=""font-size: 75px;"">+</div>","null","","",""
"","","","","","image-keyboard-response","157","2.0.0","288926","p896h9bd2pd","4377","stimuli/21_150_R.jpg","j","response","j","true"
"","","","","","html-keyboard-response","158","2.0.0","289428","p896h9bd2pd","null","<p style=""border: 5px solid green;"">Correct!</p>","null","","",""
"","","","","","html-keyboard-response","159","2.0.0","290431","p896h9bd2pd","null","<div style=""font-size: 75px;"">+</div>","null","","",""
"","","","","","image-keyboard-response","160","2.0.0","296055","p896h9bd2pd","5623","stimuli/25_100.jpg","f","response","f","true"
"","","","","","html-keyboard-response","161","2.0.0","296557","p896h9bd2pd","null","<p style=""border: 5px solid green;"">Correct!</p>","null","","",""
"","","","","","html-keyboard-response","162","2.0.0","297560","p896h9bd2pd","null","<div style=""font-size: 75px;"">+</div>","null","","",""
"","","","","","image-keyboard-response","163","2.0.0","300130","p896h9bd2pd","2567","stimuli/30_150_R.jpg","j","response","j","true"
"","","","","","html-keyboard-response","164","2.0.0","300632","p896h9bd2pd","null","<p style=""border: 5px solid green;"">Correct!</p>","null","","",""
"","","","","","html-keyboard-response","165","2.0.0","301636","p896h9bd2pd","null","<div style=""font-size: 75px;"">+</div>","null","","",""
"","","","","","image-keyboard-response","166","2.0.0","304085","p896h9bd2pd","2447","stimuli/27_50.jpg","f","response","f","true"
"","","","","","html-keyboard-response","167","2.0.0","304587","p896h9bd2pd","null","<p style=""border: 5px solid green;"">Correct!</p>","null","","",""
"","","","","","html-keyboard-response","168","2.0.0","305590","p896h9bd2pd","null","<div style=""font-size: 75px;"">+</div>","null","","",""
"","","","","","image-keyboard-response","169","2.0.0","307763","p896h9bd2pd","2171","stimuli/29_100.jpg","f","response","f","true"
"","","","","","html-keyboard-response","170","2.0.0","308265","p896h9bd2pd","null","<p style=""border: 5px solid green;"">Correct!</p>","null","","",""
"","","","","","html-keyboard-response","171","2.0.0","309269","p896h9bd2pd","null","<div style=""font-size: 75px;"">+</div>","null","","",""
"","","","","","image-keyboard-response","172","2.0.0","310819","p896h9bd2pd","1548","stimuli/7_0.jpg","f","response","f","true"
"","","","","","html-keyboard-response","173","2.0.0","311320","p896h9bd2pd","null","<p style=""border: 5px solid green;"">Correct!</p>","null","","",""
"","","","","","html-keyboard-response","174","2.0.0","312323","p896h9bd2pd","null","<div style=""font-size: 75px;"">+</div>","null","","",""
"","","","","","image-keyboard-response","175","2.0.0","313517","p896h9bd2pd","1192","stimuli/34_50_R.jpg","j","response","j","true"
"","","","","","html-keyboard-response","176","2.0.0","314019","p896h9bd2pd","null","<p style=""border: 5px solid green;"">Correct!</p>","null","","",""
"","","","","","html-keyboard-response","177","2.0.0","315022","p896h9bd2pd","null","<div style=""font-size: 75px;"">+</div>","null","","",""
"","","","","","image-keyboard-response","178","2.0.0","316625","p896h9bd2pd","1601","stimuli/21_100.jpg","f","response","f","true"
"","","","","","html-keyboard-response","179","2.0.0","317127","p896h9bd2pd","null","<p style=""border: 5px solid green;"">Correct!</p>","null","","",""
"","","","","","html-keyboard-response","180","2.0.0","318130","p896h9bd2pd","null","<div style=""font-size: 75px;"">+</div>","null","","",""
"","","","","","image-keyboard-response","181","2.0.0","319494","p896h9bd2pd","1362","stimuli/5_0_R.jpg","j","response","j","true"
"","","","","","html-keyboard-response","182","2.0.0","319996","p896h9bd2pd","null","<p style=""border: 5px solid green;"">Correct!</p>","null","","",""
"","","","","","html-keyboard-response","183","2.0.0","320999","p896h9bd2pd","null","<div style=""font-size: 75px;"">+</div>","null","","",""
"","","","","","image-keyboard-response","184","2.0.0","323243","p896h9bd2pd","2243","stimuli/37_50_R.jpg","j","response","j","true"
"","","","","","html-keyboard-response","185","2.0.0","323744","p896h9bd2pd","null","<p style=""border: 5px solid green;"">Correct!</p>","null","","",""
"","","","","","html-keyboard-response","186","2.0.0","324748","p896h9bd2pd","null","<div style=""font-size: 75px;"">+</div>","null","","",""
"","","","","","image-keyboard-response","187","2.0.0","330836","p896h9bd2pd","6087","stimuli/11_150.jpg","f","response","f","true"
"","","","","","html-keyboard-response","188","2.0.0","331338","p896h9bd2pd","null","<p style=""border: 5px solid green;"">Correct!</p>","null","","",""
"","","","","","html-keyboard-response","189","2.0.0","332341","p896h9bd2pd","null","<div style=""font-size: 75px;"">+</div>","null","","",""
"","","","","","image-keyboard-response","190","2.0.0","333398","p896h9bd2pd","1056","stimuli/21_0.jpg","f","response","f","true"
"","","","","","html-keyboard-response","191","2.0.0","333900","p896h9bd2pd","null","<p style=""border: 5px solid green;"">Correct!</p>","null","","",""
"","","","","","html-keyboard-response","192","2.0.0","334903","p896h9bd2pd","null","<div style=""font-size: 75px;"">+</div>","null","","",""
"","","","","","image-keyboard-response","193","2.0.0","340412","p896h9bd2pd","5507","stimuli/29_150.jpg","f","response","f","true"
"","","","","","html-keyboard-response","194","2.0.0","340915","p896h9bd2pd","null","<p style=""border: 5px solid green;"">Correct!</p>","null","","",""
"","","","","","html-keyboard-response","195","2.0.0","341918","p896h9bd2pd","null","<div style=""font-size: 75px;"">+</div>","null","","",""
"","","","","","image-keyboard-response","196","2.0.0","343433","p896h9bd2pd","1513","stimuli/8_0_R.jpg","j","response","j","true"
"","","","","","html-keyboard-response","197","2.0.0","343935","p896h9bd2pd","null","<p style=""border: 5px solid green;"">Correct!</p>","null","","",""
"","","","","","html-keyboard-response","198","2.0.0","344938","p896h9bd2pd","null","<div style=""font-size: 75px;"">+</div>","null","","",""
"","","","","","image-keyboard-response","199","2.0.0","346559","p896h9bd2pd","1618","stimuli/27_0_R.jpg","j","response","j","true"
"","","","","","html-keyboard-response","200","2.0.0","347061","p896h9bd2pd","null","<p style=""border: 5px solid green;"">Correct!</p>","null","","",""
"","","","","","html-keyboard-response","201","2.0.0","348064","p896h9bd2pd","null","<div style=""font-size: 75px;"">+</div>","null","","",""
"","","","","","image-keyboard-response","202","2.0.0","350744","p896h9bd2pd","2678","stimuli/7_150.jpg","f","response","f","true"
"","","","","","html-keyboard-response","203","2.0.0","351245","p896h9bd2pd","null","<p style=""border: 5px solid green;"">Correct!</p>","null","","",""
"","","","","","html-keyboard-response","204","2.0.0","352248","p896h9bd2pd","null","<div style=""font-size: 75px;"">+</div>","null","","",""
"","","","","","image-keyboard-response","205","2.0.0","354059","p896h9bd2pd","1809","stimuli/4_150_R.jpg","j","response","j","true"
"","","","","","html-keyboard-response","206","2.0.0","354560","p896h9bd2pd","null","<p style=""border: 5px solid green;"">Correct!</p>","null","","",""
"","","","","","html-keyboard-response","207","2.0.0","355564","p896h9bd2pd","null","<div style=""font-size: 75px;"">+</div>","null","","",""
"","","","","","image-keyboard-response","208","2.0.0","357106","p896h9bd2pd","1540","stimuli/10_50.jpg","f","response","f","true"
"","","","","","html-keyboard-response","209","2.0.0","357608","p896h9bd2pd","null","<p style=""border: 5px solid green;"">Correct!</p>","null","","",""
"","","","","","html-keyboard-response","210","2.0.0","358610","p896h9bd2pd","null","<div style=""font-size: 75px;"">+</div>","null","","",""
"","","","","","image-keyboard-response","211","2.0.0","361857","p896h9bd2pd","3245","stimuli/38_100.jpg","f","response","f","true"
"","","","","","html-keyboard-response","212","2.0.0","362359","p896h9bd2pd","null","<p style=""border: 5px solid green;"">Correct!</p>","null","","",""
"","","","","","html-keyboard-response","213","2.0.0","363362","p896h9bd2pd","null","<div style=""font-size: 75px;"">+</div>","null","","",""
"","","","","","image-keyboard-response","214","2.0.0","366017","p896h9bd2pd","2653","stimuli/20_100_R.jpg","j","response","j","true"
"","","","","","html-keyboard-response","215","2.0.0","366518","p896h9bd2pd","null","<p style=""border: 5px solid green;"">Correct!</p>","null","","",""
"","","","","","html-keyboard-response","216","2.0.0","367521","p896h9bd2pd","null","<div style=""font-size: 75px;"">+</div>","null","","",""
"","","","","","image-keyboard-response","217","2.0.0","368441","p896h9bd2pd","918","stimuli/46_0.jpg","f","response","f","true"
"","","","","","html-keyboard-response","218","2.0.0","368944","p896h9bd2pd","null","<p style=""border: 5px solid green;"">Correct!</p>","null","","",""
"","","","","","html-keyboard-response","219","2.0.0","369946","p896h9bd2pd","null","<div style=""font-size: 75px;"">+</div>","null","","",""
"","","","","","image-keyboard-response","220","2.0.0","371180","p896h9bd2pd","1233","stimuli/10_50_R.jpg","j","response","j","true"
"","","","","","html-keyboard-response","221","2.0.0","371682","p896h9bd2pd","null","<p style=""border: 5px solid green;"">Correct!</p>","null","","",""
"","","","","","html-keyboard-response","222","2.0.0","372685","p896h9bd2pd","null","<div style=""font-size: 75px;"">+</div>","null","","",""
"","","","","","image-keyboard-response","223","2.0.0","374438","p896h9bd2pd","1752","stimuli/14_50_R.jpg","j","response","j","true"
"","","","","","html-keyboard-response","224","2.0.0","374940","p896h9bd2pd","null","<p style=""border: 5px solid green;"">Correct!</p>","null","","",""
"","","","","","html-keyboard-response","225","2.0.0","375942","p896h9bd2pd","null","<div style=""font-size: 75px;"">+</div>","null","","",""
"","","","","","image-keyboard-response","226","2.0.0","377032","p896h9bd2pd","1088","stimuli/42_0_R.jpg","j","response","j","true"
"","","","","","html-keyboard-response","227","2.0.0","377535","p896h9bd2pd","null","<p style=""border: 5px solid green;"">Correct!</p>","null","","",""
"","","","","","html-keyboard-response","228","2.0.0","378538","p896h9bd2pd","null","<div style=""font-size: 75px;"">+</div>","null","","",""
"","","","","","image-keyboard-response","229","2.0.0","379608","p896h9bd2pd","1068","stimuli/41_0.jpg","f","response","f","true"
"","","","","","html-keyboard-response","230","2.0.0","380110","p896h9bd2pd","null","<p style=""border: 5px solid green;"">Correct!</p>","null","","",""
"","","","","","html-keyboard-response","231","2.0.0","381114","p896h9bd2pd","null","<div style=""font-size: 75px;"">+</div>","null","","",""
"","","","","","image-keyboard-response","232","2.0.0","383411","p896h9bd2pd","2295","stimuli/32_150_R.jpg","j","response","j","true"
"","","","","","html-keyboard-response","233","2.0.0","383912","p896h9bd2pd","null","<p style=""border: 5px solid green;"">Correct!</p>","null","","",""
"","","","","","html-keyboard-response","234","2.0.0","384916","p896h9bd2pd","null","<div style=""font-size: 75px;"">+</div>","null","","",""
"","","","","","image-keyboard-response","235","2.0.0","386839","p896h9bd2pd","1922","stimuli/41_150.jpg","f","response","f","true"
"","","","","","html-keyboard-response","236","2.0.0","387341","p896h9bd2pd","null","<p style=""border: 5px solid green;"">Correct!</p>","null","","",""
"","","","","","html-keyboard-response","237","2.0.0","388343","p896h9bd2pd","null","<div style=""font-size: 75px;"">+</div>","null","","",""
"","","","","","image-keyboard-response","238","2.0.0","391251","p896h9bd2pd","2907","stimuli/41_100_R.jpg","j","response","j","true"
"","","","","","html-keyboard-response","239","2.0.0","391753","p896h9bd2pd","null","<p style=""border: 5px solid green;"">Correct!</p>","null","","",""
"","","","","","html-keyboard-response","240","2.0.0","392756","p896h9bd2pd","null","<div style=""font-size: 75px;"">+</div>","null","","",""
"","","","","","image-keyboard-response","241","2.0.0","395217","p896h9bd2pd","2459","stimuli/36_50_R.jpg","j","response","j","true"
"","","","","","html-keyboard-response","242","2.0.0","395719","p896h9bd2pd","null","<p style=""border: 5px solid green;"">Correct!</p>","null","","",""
"","","","","","html-keyboard-response","243","2.0.0","396723","p896h9bd2pd","null","<div style=""font-size: 75px;"">+</div>","null","","",""
"","","","","","image-keyboard-response","244","2.0.0","399082","p896h9bd2pd","2357","stimuli/31_100_R.jpg","j","response","j","true"
"","","","","","html-keyboard-response","245","2.0.0","399584","p896h9bd2pd","null","<p style=""border: 5px solid green;"">Correct!</p>","null","","",""
"","","","","","html-keyboard-response","246","2.0.0","400589","p896h9bd2pd","null","<div style=""font-size: 75px;"">+</div>","null","","",""
"","","","","","image-keyboard-response","247","2.0.0","402660","p896h9bd2pd","2070","stimuli/9_0_R.jpg","j","response","j","true"
"","","","","","html-keyboard-response","248","2.0.0","403163","p896h9bd2pd","null","<p style=""border: 5px solid green;"">Correct!</p>","null","","",""
"","","","","","html-keyboard-response","249","2.0.0","404164","p896h9bd2pd","null","<div style=""font-size: 75px;"">+</div>","null","","",""
"","","","","","image-keyboard-response","250","2.0.0","405225","p896h9bd2pd","1060","stimuli/30_50_R.jpg","j","response","j","true"
"","","","","","html-keyboard-response","251","2.0.0","405726","p896h9bd2pd","null","<p style=""border: 5px solid green;"">Correct!</p>","null","","",""
"","","","","","html-keyboard-response","252","2.0.0","406729","p896h9bd2pd","null","<div style=""font-size: 75px;"">+</div>","null","","",""
"","","","","","image-keyboard-response","253","2.0.0","410004","p896h9bd2pd","3273","stimuli/18_150.jpg","f","response","f","true"
"","","","","","html-keyboard-response","254","2.0.0","410506","p896h9bd2pd","null","<p style=""border: 5px solid green;"">Correct!</p>","null","","",""
"","","","","","html-keyboard-response","255","2.0.0","411508","p896h9bd2pd","null","<div style=""font-size: 75px;"">+</div>","null","","",""
"","","","","","image-keyboard-response","256","2.0.0","419324","p896h9bd2pd","7814","stimuli/36_150_R.jpg","j","response","j","true"
"","","","","","html-keyboard-response","257","2.0.0","419826","p896h9bd2pd","null","<p style=""border: 5px solid green;"">Correct!</p>","null","","",""
"","","","","","html-keyboard-response","258","2.0.0","420828","p896h9bd2pd","null","<div style=""font-size: 75px;"">+</div>","null","","",""
"","","","","","image-keyboard-response","259","2.0.0","422117","p896h9bd2pd","1287","stimuli/31_0.jpg","f","response","f","true"
"","","","","","html-keyboard-response","260","2.0.0","422619","p896h9bd2pd","null","<p style=""border: 5px solid green;"">Correct!</p>","null","","",""
"","","","","","html-keyboard-response","261","2.0.0","423622","p896h9bd2pd","null","<div style=""font-size: 75px;"">+</div>","null","","",""
"","","","","","image-keyboard-response","262","2.0.0","426086","p896h9bd2pd","2463","stimuli/22_100_R.jpg","j","response","j","true"
"","","","","","html-keyboard-response","263","2.0.0","426588","p896h9bd2pd","null","<p style=""border: 5px solid green;"">Correct!</p>","null","","",""
"","","","","","html-keyboard-response","264","2.0.0","427591","p896h9bd2pd","null","<div style=""font-size: 75px;"">+</div>","null","","",""
"","","","","","image-keyboard-response","265","2.0.0","429151","p896h9bd2pd","1559","stimuli/38_50.jpg","f","response","f","true"
"","","","","","html-keyboard-response","266","2.0.0","429653","p896h9bd2pd","null","<p style=""border: 5px solid green;"">Correct!</p>","null","","",""
"","","","","","html-keyboard-response","267","2.0.0","430656","p896h9bd2pd","null","<div style=""font-size: 75px;"">+</div>","null","","",""
"","","","","","image-keyboard-response","268","2.0.0","432047","p896h9bd2pd","1389","stimuli/15_150.jpg","f","response","f","true"
"","","","","","html-keyboard-response","269","2.0.0","432549","p896h9bd2pd","null","<p style=""border: 5px solid green;"">Correct!</p>","null","","",""
"","","","","","html-keyboard-response","270","2.0.0","433552","p896h9bd2pd","null","<div style=""font-size: 75px;"">+</div>","null","","",""
"","","","","","image-keyboard-response","271","2.0.0","435180","p896h9bd2pd","1626","stimuli/20_50_R.jpg","j","response","j","true"
"","","","","","html-keyboard-response","272","2.0.0","435681","p896h9bd2pd","null","<p style=""border: 5px solid green;"">Correct!</p>","null","","",""
"","","","","","html-keyboard-response","273","2.0.0","436684","p896h9bd2pd","null","<div style=""font-size: 75px;"">+</div>","null","","",""
"","","","","","image-keyboard-response","274","2.0.0","438166","p896h9bd2pd","1480","stimuli/15_50_R.jpg","j","response","j","true"
"","","","","","html-keyboard-response","275","2.0.0","438667","p896h9bd2pd","null","<p style=""border: 5px solid green;"">Correct!</p>","null","","",""
"","","","","","html-keyboard-response","276","2.0.0","439670","p896h9bd2pd","null","<div style=""font-size: 75px;"">+</div>","null","","",""
"","","","","","image-keyboard-response","277","2.0.0","442402","p896h9bd2pd","2730","stimuli/28_100_R.jpg","f","response","j","false"
"","","","","","html-keyboard-response","278","2.0.0","442903","p896h9bd2pd","null","<p style=""border: 5px solid red;"">Incorrect.</p>","null","","",""
"","","","","","html-keyboard-response","279","2.0.0","443906","p896h9bd2pd","null","<div style=""font-size: 75px;"">+</div>","null","","",""
"","","","","","image-keyboard-response","280","2.0.0","449825","p896h9bd2pd","5917","stimuli/23_150_R.jpg","j","response","j","true"
"","","","","","html-keyboard-response","281","2.0.0","450327","p896h9bd2pd","null","<p style=""border: 5px solid green;"">Correct!</p>","null","","",""
"","","","","","html-keyboard-response","282","2.0.0","451330","p896h9bd2pd","null","<div style=""font-size: 75px;"">+</div>","null","","",""
"","","","","","image-keyboard-response","283","2.0.0","452985","p896h9bd2pd","1654","stimuli/37_0_R.jpg","j","response","j","true"
"","","","","","html-keyboard-response","284","2.0.0","453488","p896h9bd2pd","null","<p style=""border: 5px solid green;"">Correct!</p>","null","","",""
"","","","","","html-keyboard-response","285","2.0.0","454491","p896h9bd2pd","null","<div style=""font-size: 75px;"">+</div>","null","","",""
"","","","","","image-keyboard-response","286","2.0.0","455909","p896h9bd2pd","1416","stimuli/16_50.jpg","j","response","f","false"
"","","","","","html-keyboard-response","287","2.0.0","456411","p896h9bd2pd","null","<p style=""border: 5px solid red;"">Incorrect.</p>","null","","",""
"","","","","","html-keyboard-response","288","2.0.0","457414","p896h9bd2pd","null","<div style=""font-size: 75px;"">+</div>","null","","",""
"","","","","","image-keyboard-response","289","2.0.0","459497","p896h9bd2pd","2080","stimuli/13_100.jpg","f","response","f","true"
"","","","","","html-keyboard-response","290","2.0.0","459998","p896h9bd2pd","null","<p style=""border: 5px solid green;"">Correct!</p>","null","","",""
"","","","","","html-keyboard-response","291","2.0.0","461001","p896h9bd2pd","null","<div style=""font-size: 75px;"">+</div>","null","","",""
"","","","","","image-keyboard-response","292","2.0.0","464599","p896h9bd2pd","3596","stimuli/10_150_R.jpg","j","response","j","true"
"","","","","","html-keyboard-response","293","2.0.0","465100","p896h9bd2pd","null","<p style=""border: 5px solid green;"">Correct!</p>","null","","",""
"","","","","","html-keyboard-response","294","2.0.0","467389","p896h9bd2pd","2286","<p>Thank you for participating!</p><p>Please press space to answer our survey.</p>"," ","","",""
"","","","","","survey-html-form","295","null","698746","p896h9bd2pd","231353","","{""response_1"":""Clear and lively"",""response_2"":""Dim and vague; flat"",""response_3"":""No image at all, you only “know” that you are thinking of the object"",""response_4"":""Moderately clear and lively"",""response_5"":""Clear and lively"",""response_6"":""Clear and lively"",""response_7"":""No image at all, you only “know” that you are thinking of the object"",""response_8"":""No image at all, you only “know” that you are thinking of the object"",""response_9"":""Moderately clear and lively"",""response_10"":""No image at all, you only “know” that you are thinking of the object"",""response_11"":""Clear and lively"",""response_12"":""No image at all, you only “know” that you are thinking of the object"",""response_13"":""Dim and vague; flat"",""response_14"":""Moderately clear and lively"",""response_15"":""Clear and lively"",""response_16"":""No image at all, you only “know” that you are thinking of the object""}","","",""
"","","","","","survey-html-form","296","null","807683","p896h9bd2pd","108934","","{""age"":""21"",""gender"":""female"",""education"":""some-college"",""handedness"":""right"",""vision"":""normal"",""technical_difficulties"":""No technical difficulties during the experiment! "",""knowledge_check"":""I believe the experiment was testing how well humans mentally rotate images in terms of response time.""}","","",""
