"success","timeout","failed_images","failed_audio","failed_video","trial_type","trial_index","plugin_version","time_elapsed","random_id","rt","stimulus","response","task","correct_response","correct"
"true","false","[]","[]","[]","preload","0","2.0.0","10665","p8uams6pc6o","","","","","",""
"true","","","","","fullscreen","1","2.0.0","17489","p8uams6pc6o","5814","","","","",""
"","","","","","html-keyboard-response","2","2.0.0","18415","p8uams6pc6o","923","Welcome to the experiment. Press any key to begin."," ","","",""
"","","","","","survey-text","3","2.0.0","22946","p8uams6pc6o","4521","","{""participant_id"":""Beaver""}","","",""
"","","","","","html-keyboard-response","4","2.0.0","43785","p8uams6pc6o","20835","
        <p>Welcome to the experiment.</p>
        <p>In this task, you will see pairs of images.</p>
        <p>Your job is to determine whether the image on the right is a rotated version of the image on the left.</p>
        <p>Press the <strong>F</strong> key if the images are the same.</p>
        <p>Press the <strong>J</strong> key if the images are different.</p>
        <p>Press any key to begin.</p>
    "," ","","",""
"","","","","","html-keyboard-response","5","2.0.0","44796","p8uams6pc6o","null","<div style=""font-size: 75px;"">+</div>","null","","",""
"","","","","","image-keyboard-response","6","2.0.0","58386","p8uams6pc6o","13582","stimuli/21_0_R.jpg","f","response","j","false"
"","","","","","html-keyboard-response","7","2.0.0","58903","p8uams6pc6o","null","<p style=""border: 5px solid red;"">Incorrect.</p>","null","","",""
"","","","","","html-keyboard-response","8","2.0.0","59914","p8uams6pc6o","null","<div style=""font-size: 75px;"">+</div>","null","","",""
"","","","","","image-keyboard-response","9","2.0.0","65114","p8uams6pc6o","5197","stimuli/13_100.jpg","f","response","f","true"
"","","","","","html-keyboard-response","10","2.0.0","65626","p8uams6pc6o","null","<p style=""border: 5px solid green;"">Correct!</p>","null","","",""
"","","","","","html-keyboard-response","11","2.0.0","66632","p8uams6pc6o","null","<div style=""font-size: 75px;"">+</div>","null","","",""
"","","","","","image-keyboard-response","12","2.0.0","70354","p8uams6pc6o","3719","stimuli/29_50.jpg","f","response","f","true"
"","","","","","html-keyboard-response","13","2.0.0","70857","p8uams6pc6o","null","<p style=""border: 5px solid green;"">Correct!</p>","null","","",""
"","","","","","html-keyboard-response","14","2.0.0","71866","p8uams6pc6o","null","<div style=""font-size: 75px;"">+</div>","null","","",""
"","","","","","image-keyboard-response","15","2.0.0","77494","p8uams6pc6o","5626","stimuli/28_100.jpg","f","response","f","true"
"","","","","","html-keyboard-response","16","2.0.0","78002","p8uams6pc6o","null","<p style=""border: 5px solid green;"">Correct!</p>","null","","",""
"","","","","","html-keyboard-response","17","2.0.0","79007","p8uams6pc6o","null","<div style=""font-size: 75px;"">+</div>","null","","",""
"","","","","","image-keyboard-response","18","2.0.0","82353","p8uams6pc6o","3343","stimuli/23_50.jpg","f","response","f","true"
"","","","","","html-keyboard-response","19","2.0.0","82861","p8uams6pc6o","null","<p style=""border: 5px solid green;"">Correct!</p>","null","","",""
"","","","","","html-keyboard-response","20","2.0.0","83871","p8uams6pc6o","null","<div style=""font-size: 75px;"">+</div>","null","","",""
"","","","","","image-keyboard-response","21","2.0.0","85934","p8uams6pc6o","2061","stimuli/36_50.jpg","j","response","f","false"
"","","","","","html-keyboard-response","22","2.0.0","86438","p8uams6pc6o","null","<p style=""border: 5px solid red;"">Incorrect.</p>","null","","",""
"","","","","","html-keyboard-response","23","2.0.0","87456","p8uams6pc6o","null","<div style=""font-size: 75px;"">+</div>","null","","",""
"","","","","","image-keyboard-response","24","2.0.0","90665","p8uams6pc6o","3206","stimuli/35_150.jpg","f","response","f","true"
"","","","","","html-keyboard-response","25","2.0.0","91172","p8uams6pc6o","null","<p style=""border: 5px solid green;"">Correct!</p>","null","","",""
"","","","","","html-keyboard-response","26","2.0.0","92179","p8uams6pc6o","null","<div style=""font-size: 75px;"">+</div>","null","","",""
"","","","","","image-keyboard-response","27","2.0.0","93717","p8uams6pc6o","1535","stimuli/16_0.jpg","f","response","f","true"
"","","","","","html-keyboard-response","28","2.0.0","94228","p8uams6pc6o","null","<p style=""border: 5px solid green;"">Correct!</p>","null","","",""
"","","","","","html-keyboard-response","29","2.0.0","95243","p8uams6pc6o","null","<div style=""font-size: 75px;"">+</div>","null","","",""
"","","","","","image-keyboard-response","30","2.0.0","97785","p8uams6pc6o","2539","stimuli/9_50_R.jpg","j","response","j","true"
"","","","","","html-keyboard-response","31","2.0.0","98288","p8uams6pc6o","null","<p style=""border: 5px solid green;"">Correct!</p>","null","","",""
"","","","","","html-keyboard-response","32","2.0.0","99292","p8uams6pc6o","null","<div style=""font-size: 75px;"">+</div>","null","","",""
"","","","","","image-keyboard-response","33","2.0.0","100954","p8uams6pc6o","1659","stimuli/16_150_R.jpg","j","response","j","true"
"","","","","","html-keyboard-response","34","2.0.0","101464","p8uams6pc6o","null","<p style=""border: 5px solid green;"">Correct!</p>","null","","",""
"","","","","","html-keyboard-response","35","2.0.0","102467","p8uams6pc6o","null","<div style=""font-size: 75px;"">+</div>","null","","",""
"","","","","","image-keyboard-response","36","2.0.0","107435","p8uams6pc6o","4965","stimuli/6_100_R.jpg","j","response","j","true"
"","","","","","html-keyboard-response","37","2.0.0","107950","p8uams6pc6o","null","<p style=""border: 5px solid green;"">Correct!</p>","null","","",""
"","","","","","html-keyboard-response","38","2.0.0","108958","p8uams6pc6o","null","<div style=""font-size: 75px;"">+</div>","null","","",""
"","","","","","image-keyboard-response","39","2.0.0","111695","p8uams6pc6o","2735","stimuli/31_150_R.jpg","f","response","j","false"
"","","","","","html-keyboard-response","40","2.0.0","112209","p8uams6pc6o","null","<p style=""border: 5px solid red;"">Incorrect.</p>","null","","",""
"","","","","","html-keyboard-response","41","2.0.0","113222","p8uams6pc6o","null","<div style=""font-size: 75px;"">+</div>","null","","",""
"","","","","","image-keyboard-response","42","2.0.0","115933","p8uams6pc6o","2709","stimuli/23_0_R.jpg","j","response","j","true"
"","","","","","html-keyboard-response","43","2.0.0","116443","p8uams6pc6o","null","<p style=""border: 5px solid green;"">Correct!</p>","null","","",""
"","","","","","html-keyboard-response","44","2.0.0","117456","p8uams6pc6o","null","<div style=""font-size: 75px;"">+</div>","null","","",""
"","","","","","image-keyboard-response","45","2.0.0","119806","p8uams6pc6o","2349","stimuli/34_0.jpg","f","response","f","true"
"","","","","","html-keyboard-response","46","2.0.0","120312","p8uams6pc6o","null","<p style=""border: 5px solid green;"">Correct!</p>","null","","",""
"","","","","","html-keyboard-response","47","2.0.0","121322","p8uams6pc6o","null","<div style=""font-size: 75px;"">+</div>","null","","",""
"","","","","","image-keyboard-response","48","2.0.0","123165","p8uams6pc6o","1842","stimuli/33_150.jpg","j","response","f","false"
"","","","","","html-keyboard-response","49","2.0.0","123673","p8uams6pc6o","null","<p style=""border: 5px solid red;"">Incorrect.</p>","null","","",""
"","","","","","html-keyboard-response","50","2.0.0","124689","p8uams6pc6o","null","<div style=""font-size: 75px;"">+</div>","null","","",""
"","","","","","image-keyboard-response","51","2.0.0","127097","p8uams6pc6o","2407","stimuli/38_150.jpg","f","response","f","true"
"","","","","","html-keyboard-response","52","2.0.0","127600","p8uams6pc6o","null","<p style=""border: 5px solid green;"">Correct!</p>","null","","",""
"","","","","","html-keyboard-response","53","2.0.0","128603","p8uams6pc6o","null","<div style=""font-size: 75px;"">+</div>","null","","",""
"","","","","","image-keyboard-response","54","2.0.0","130058","p8uams6pc6o","1453","stimuli/2_100.jpg","f","response","f","true"
"","","","","","html-keyboard-response","55","2.0.0","130566","p8uams6pc6o","null","<p style=""border: 5px solid green;"">Correct!</p>","null","","",""
"","","","","","html-keyboard-response","56","2.0.0","131579","p8uams6pc6o","null","<div style=""font-size: 75px;"">+</div>","null","","",""
"","","","","","image-keyboard-response","57","2.0.0","133397","p8uams6pc6o","1816","stimuli/47_50.jpg","f","response","f","true"
"","","","","","html-keyboard-response","58","2.0.0","133899","p8uams6pc6o","null","<p style=""border: 5px solid green;"">Correct!</p>","null","","",""
"","","","","","html-keyboard-response","59","2.0.0","134909","p8uams6pc6o","null","<div style=""font-size: 75px;"">+</div>","null","","",""
"","","","","","image-keyboard-response","60","2.0.0","136085","p8uams6pc6o","1173","stimuli/23_0.jpg","f","response","f","true"
"","","","","","html-keyboard-response","61","2.0.0","136600","p8uams6pc6o","null","<p style=""border: 5px solid green;"">Correct!</p>","null","","",""
"","","","","","html-keyboard-response","62","2.0.0","137616","p8uams6pc6o","null","<div style=""font-size: 75px;"">+</div>","null","","",""
"","","","","","image-keyboard-response","63","2.0.0","138845","p8uams6pc6o","1227","stimuli/32_0.jpg","f","response","f","true"
"","","","","","html-keyboard-response","64","2.0.0","139348","p8uams6pc6o","null","<p style=""border: 5px solid green;"">Correct!</p>","null","","",""
"","","","","","html-keyboard-response","65","2.0.0","140352","p8uams6pc6o","null","<div style=""font-size: 75px;"">+</div>","null","","",""
"","","","","","image-keyboard-response","66","2.0.0","142115","p8uams6pc6o","1762","stimuli/22_100_R.jpg","f","response","j","false"
"","","","","","html-keyboard-response","67","2.0.0","142624","p8uams6pc6o","null","<p style=""border: 5px solid red;"">Incorrect.</p>","null","","",""
"","","","","","html-keyboard-response","68","2.0.0","143638","p8uams6pc6o","null","<div style=""font-size: 75px;"">+</div>","null","","",""
"","","","","","image-keyboard-response","69","2.0.0","145415","p8uams6pc6o","1775","stimuli/11_150.jpg","f","response","f","true"
"","","","","","html-keyboard-response","70","2.0.0","145921","p8uams6pc6o","null","<p style=""border: 5px solid green;"">Correct!</p>","null","","",""
"","","","","","html-keyboard-response","71","2.0.0","146932","p8uams6pc6o","null","<div style=""font-size: 75px;"">+</div>","null","","",""
"","","","","","image-keyboard-response","72","2.0.0","147984","p8uams6pc6o","1050","stimuli/33_100_R.jpg","f","response","j","false"
"","","","","","html-keyboard-response","73","2.0.0","148491","p8uams6pc6o","null","<p style=""border: 5px solid red;"">Incorrect.</p>","null","","",""
"","","","","","html-keyboard-response","74","2.0.0","149501","p8uams6pc6o","null","<div style=""font-size: 75px;"">+</div>","null","","",""
"","","","","","image-keyboard-response","75","2.0.0","151806","p8uams6pc6o","2304","stimuli/27_150_R.jpg","f","response","j","false"
"","","","","","html-keyboard-response","76","2.0.0","152318","p8uams6pc6o","null","<p style=""border: 5px solid red;"">Incorrect.</p>","null","","",""
"","","","","","html-keyboard-response","77","2.0.0","153332","p8uams6pc6o","null","<div style=""font-size: 75px;"">+</div>","null","","",""
"","","","","","image-keyboard-response","78","2.0.0","154577","p8uams6pc6o","1244","stimuli/40_100.jpg","f","response","f","true"
"","","","","","html-keyboard-response","79","2.0.0","155085","p8uams6pc6o","null","<p style=""border: 5px solid green;"">Correct!</p>","null","","",""
"","","","","","html-keyboard-response","80","2.0.0","156102","p8uams6pc6o","null","<div style=""font-size: 75px;"">+</div>","null","","",""
"","","","","","image-keyboard-response","81","2.0.0","157335","p8uams6pc6o","1232","stimuli/36_0.jpg","f","response","f","true"
"","","","","","html-keyboard-response","82","2.0.0","157842","p8uams6pc6o","null","<p style=""border: 5px solid green;"">Correct!</p>","null","","",""
"","","","","","html-keyboard-response","83","2.0.0","158851","p8uams6pc6o","null","<div style=""font-size: 75px;"">+</div>","null","","",""
"","","","","","image-keyboard-response","84","2.0.0","160878","p8uams6pc6o","2025","stimuli/38_50_R.jpg","j","response","j","true"
"","","","","","html-keyboard-response","85","2.0.0","161382","p8uams6pc6o","null","<p style=""border: 5px solid green;"">Correct!</p>","null","","",""
"","","","","","html-keyboard-response","86","2.0.0","162392","p8uams6pc6o","null","<div style=""font-size: 75px;"">+</div>","null","","",""
"","","","","","image-keyboard-response","87","2.0.0","163628","p8uams6pc6o","1235","stimuli/9_0_R.jpg","j","response","j","true"
"","","","","","html-keyboard-response","88","2.0.0","164142","p8uams6pc6o","null","<p style=""border: 5px solid green;"">Correct!</p>","null","","",""
"","","","","","html-keyboard-response","89","2.0.0","165153","p8uams6pc6o","null","<div style=""font-size: 75px;"">+</div>","null","","",""
"","","","","","image-keyboard-response","90","2.0.0","167595","p8uams6pc6o","2441","stimuli/1_100.jpg","f","response","f","true"
"","","","","","html-keyboard-response","91","2.0.0","168105","p8uams6pc6o","null","<p style=""border: 5px solid green;"">Correct!</p>","null","","",""
"","","","","","html-keyboard-response","92","2.0.0","169108","p8uams6pc6o","null","<div style=""font-size: 75px;"">+</div>","null","","",""
"","","","","","image-keyboard-response","93","2.0.0","170275","p8uams6pc6o","1166","stimuli/14_100_R.jpg","j","response","j","true"
"","","","","","html-keyboard-response","94","2.0.0","170777","p8uams6pc6o","null","<p style=""border: 5px solid green;"">Correct!</p>","null","","",""
"","","","","","html-keyboard-response","95","2.0.0","171793","p8uams6pc6o","null","<div style=""font-size: 75px;"">+</div>","null","","",""
"","","","","","image-keyboard-response","96","2.0.0","174665","p8uams6pc6o","2870","stimuli/24_50.jpg","j","response","f","false"
"","","","","","html-keyboard-response","97","2.0.0","175169","p8uams6pc6o","null","<p style=""border: 5px solid red;"">Incorrect.</p>","null","","",""
"","","","","","html-keyboard-response","98","2.0.0","176172","p8uams6pc6o","null","<div style=""font-size: 75px;"">+</div>","null","","",""
"","","","","","image-keyboard-response","99","2.0.0","178065","p8uams6pc6o","1892","stimuli/23_150_R.jpg","j","response","j","true"
"","","","","","html-keyboard-response","100","2.0.0","178574","p8uams6pc6o","null","<p style=""border: 5px solid green;"">Correct!</p>","null","","",""
"","","","","","html-keyboard-response","101","2.0.0","179583","p8uams6pc6o","null","<div style=""font-size: 75px;"">+</div>","null","","",""
"","","","","","image-keyboard-response","102","2.0.0","180605","p8uams6pc6o","1020","stimuli/24_0.jpg","f","response","f","true"
"","","","","","html-keyboard-response","103","2.0.0","181108","p8uams6pc6o","null","<p style=""border: 5px solid green;"">Correct!</p>","null","","",""
"","","","","","html-keyboard-response","104","2.0.0","182113","p8uams6pc6o","null","<div style=""font-size: 75px;"">+</div>","null","","",""
"","","","","","image-keyboard-response","105","2.0.0","183285","p8uams6pc6o","1169","stimuli/18_100_R.jpg","f","response","j","false"
"","","","","","html-keyboard-response","106","2.0.0","183801","p8uams6pc6o","null","<p style=""border: 5px solid red;"">Incorrect.</p>","null","","",""
"","","","","","html-keyboard-response","107","2.0.0","184806","p8uams6pc6o","null","<div style=""font-size: 75px;"">+</div>","null","","",""
"","","","","","image-keyboard-response","108","2.0.0","186105","p8uams6pc6o","1297","stimuli/8_100_R.jpg","f","response","j","false"
"","","","","","html-keyboard-response","109","2.0.0","186608","p8uams6pc6o","null","<p style=""border: 5px solid red;"">Incorrect.</p>","null","","",""
"","","","","","html-keyboard-response","110","2.0.0","187617","p8uams6pc6o","null","<div style=""font-size: 75px;"">+</div>","null","","",""
"","","","","","image-keyboard-response","111","2.0.0","188645","p8uams6pc6o","1026","stimuli/39_50_R.jpg","j","response","j","true"
"","","","","","html-keyboard-response","112","2.0.0","189148","p8uams6pc6o","null","<p style=""border: 5px solid green;"">Correct!</p>","null","","",""
"","","","","","html-keyboard-response","113","2.0.0","190157","p8uams6pc6o","null","<div style=""font-size: 75px;"">+</div>","null","","",""
"","","","","","image-keyboard-response","114","2.0.0","191165","p8uams6pc6o","1007","stimuli/3_150_R.jpg","j","response","j","true"
"","","","","","html-keyboard-response","115","2.0.0","191671","p8uams6pc6o","null","<p style=""border: 5px solid green;"">Correct!</p>","null","","",""
"","","","","","html-keyboard-response","116","2.0.0","192688","p8uams6pc6o","null","<div style=""font-size: 75px;"">+</div>","null","","",""
"","","","","","image-keyboard-response","117","2.0.0","194816","p8uams6pc6o","2125","stimuli/17_50.jpg","f","response","f","true"
"","","","","","html-keyboard-response","118","2.0.0","195321","p8uams6pc6o","null","<p style=""border: 5px solid green;"">Correct!</p>","null","","",""
"","","","","","html-keyboard-response","119","2.0.0","196333","p8uams6pc6o","null","<div style=""font-size: 75px;"">+</div>","null","","",""
"","","","","","image-keyboard-response","120","2.0.0","198056","p8uams6pc6o","1721","stimuli/45_100_R.jpg","j","response","j","true"
"","","","","","html-keyboard-response","121","2.0.0","198563","p8uams6pc6o","null","<p style=""border: 5px solid green;"">Correct!</p>","null","","",""
"","","","","","html-keyboard-response","122","2.0.0","199572","p8uams6pc6o","null","<div style=""font-size: 75px;"">+</div>","null","","",""
"","","","","","image-keyboard-response","123","2.0.0","200796","p8uams6pc6o","1222","stimuli/41_0_R.jpg","j","response","j","true"
"","","","","","html-keyboard-response","124","2.0.0","201301","p8uams6pc6o","null","<p style=""border: 5px solid green;"">Correct!</p>","null","","",""
"","","","","","html-keyboard-response","125","2.0.0","202308","p8uams6pc6o","null","<div style=""font-size: 75px;"">+</div>","null","","",""
"","","","","","image-keyboard-response","126","2.0.0","205036","p8uams6pc6o","2726","stimuli/22_50.jpg","f","response","f","true"
"","","","","","html-keyboard-response","127","2.0.0","205544","p8uams6pc6o","null","<p style=""border: 5px solid green;"">Correct!</p>","null","","",""
"","","","","","html-keyboard-response","128","2.0.0","206546","p8uams6pc6o","null","<div style=""font-size: 75px;"">+</div>","null","","",""
"","","","","","image-keyboard-response","129","2.0.0","208627","p8uams6pc6o","2079","stimuli/42_150.jpg","j","response","f","false"
"","","","","","html-keyboard-response","130","2.0.0","209133","p8uams6pc6o","null","<p style=""border: 5px solid red;"">Incorrect.</p>","null","","",""
"","","","","","html-keyboard-response","131","2.0.0","210136","p8uams6pc6o","null","<div style=""font-size: 75px;"">+</div>","null","","",""
"","","","","","image-keyboard-response","132","2.0.0","211945","p8uams6pc6o","1807","stimuli/48_100.jpg","j","response","f","false"
"","","","","","html-keyboard-response","133","2.0.0","212462","p8uams6pc6o","null","<p style=""border: 5px solid red;"">Incorrect.</p>","null","","",""
"","","","","","html-keyboard-response","134","2.0.0","213478","p8uams6pc6o","null","<div style=""font-size: 75px;"">+</div>","null","","",""
"","","","","","image-keyboard-response","135","2.0.0","214656","p8uams6pc6o","1176","stimuli/14_0.jpg","f","response","f","true"
"","","","","","html-keyboard-response","136","2.0.0","215172","p8uams6pc6o","null","<p style=""border: 5px solid green;"">Correct!</p>","null","","",""
"","","","","","html-keyboard-response","137","2.0.0","216182","p8uams6pc6o","null","<div style=""font-size: 75px;"">+</div>","null","","",""
"","","","","","image-keyboard-response","138","2.0.0","217127","p8uams6pc6o","944","stimuli/15_0_R.jpg","j","response","j","true"
"","","","","","html-keyboard-response","139","2.0.0","217639","p8uams6pc6o","null","<p style=""border: 5px solid green;"">Correct!</p>","null","","",""
"","","","","","html-keyboard-response","140","2.0.0","218645","p8uams6pc6o","null","<div style=""font-size: 75px;"">+</div>","null","","",""
"","","","","","image-keyboard-response","141","2.0.0","219888","p8uams6pc6o","1240","stimuli/7_50_R.jpg","j","response","j","true"
"","","","","","html-keyboard-response","142","2.0.0","220400","p8uams6pc6o","null","<p style=""border: 5px solid green;"">Correct!</p>","null","","",""
"","","","","","html-keyboard-response","143","2.0.0","221409","p8uams6pc6o","null","<div style=""font-size: 75px;"">+</div>","null","","",""
"","","","","","image-keyboard-response","144","2.0.0","223937","p8uams6pc6o","2526","stimuli/46_150_R.jpg","j","response","j","true"
"","","","","","html-keyboard-response","145","2.0.0","224443","p8uams6pc6o","null","<p style=""border: 5px solid green;"">Correct!</p>","null","","",""
"","","","","","html-keyboard-response","146","2.0.0","225449","p8uams6pc6o","null","<div style=""font-size: 75px;"">+</div>","null","","",""
"","","","","","image-keyboard-response","147","2.0.0","226856","p8uams6pc6o","1404","stimuli/48_150.jpg","f","response","f","true"
"","","","","","html-keyboard-response","148","2.0.0","227360","p8uams6pc6o","null","<p style=""border: 5px solid green;"">Correct!</p>","null","","",""
"","","","","","html-keyboard-response","149","2.0.0","257368","p8uams6pc6o","null","<p> Take a break! Experiment continues in 30 seconds . </p>","null","","",""
"","","","","","html-keyboard-response","150","2.0.0","258372","p8uams6pc6o","null","<div style=""font-size: 75px;"">+</div>","null","","",""
"","","","","","image-keyboard-response","151","2.0.0","271799","p8uams6pc6o","13425","stimuli/23_100_R.jpg","f","response","j","false"
"","","","","","html-keyboard-response","152","2.0.0","272309","p8uams6pc6o","null","<p style=""border: 5px solid red;"">Incorrect.</p>","null","","",""
"","","","","","html-keyboard-response","153","2.0.0","273326","p8uams6pc6o","null","<div style=""font-size: 75px;"">+</div>","null","","",""
"","","","","","image-keyboard-response","154","2.0.0","274395","p8uams6pc6o","1067","stimuli/41_50_R.jpg","f","response","j","false"
"","","","","","html-keyboard-response","155","2.0.0","274899","p8uams6pc6o","null","<p style=""border: 5px solid red;"">Incorrect.</p>","null","","",""
"","","","","","html-keyboard-response","156","2.0.0","275907","p8uams6pc6o","null","<div style=""font-size: 75px;"">+</div>","null","","",""
"","","","","","image-keyboard-response","157","2.0.0","277245","p8uams6pc6o","1335","stimuli/17_0.jpg","f","response","f","true"
"","","","","","html-keyboard-response","158","2.0.0","277754","p8uams6pc6o","null","<p style=""border: 5px solid green;"">Correct!</p>","null","","",""
"","","","","","html-keyboard-response","159","2.0.0","278769","p8uams6pc6o","null","<div style=""font-size: 75px;"">+</div>","null","","",""
"","","","","","image-keyboard-response","160","2.0.0","279635","p8uams6pc6o","864","stimuli/42_50_R.jpg","j","response","j","true"
"","","","","","html-keyboard-response","161","2.0.0","280143","p8uams6pc6o","null","<p style=""border: 5px solid green;"">Correct!</p>","null","","",""
"","","","","","html-keyboard-response","162","2.0.0","281150","p8uams6pc6o","null","<div style=""font-size: 75px;"">+</div>","null","","",""
"","","","","","image-keyboard-response","163","2.0.0","282116","p8uams6pc6o","964","stimuli/48_0_R.jpg","j","response","j","true"
"","","","","","html-keyboard-response","164","2.0.0","282622","p8uams6pc6o","null","<p style=""border: 5px solid green;"">Correct!</p>","null","","",""
"","","","","","html-keyboard-response","165","2.0.0","283626","p8uams6pc6o","null","<div style=""font-size: 75px;"">+</div>","null","","",""
"","","","","","image-keyboard-response","166","2.0.0","286567","p8uams6pc6o","2939","stimuli/16_50.jpg","f","response","f","true"
"","","","","","html-keyboard-response","167","2.0.0","287083","p8uams6pc6o","null","<p style=""border: 5px solid green;"">Correct!</p>","null","","",""
"","","","","","html-keyboard-response","168","2.0.0","288092","p8uams6pc6o","null","<div style=""font-size: 75px;"">+</div>","null","","",""
"","","","","","image-keyboard-response","169","2.0.0","298306","p8uams6pc6o","10212","stimuli/20_150.jpg","j","response","f","false"
"","","","","","html-keyboard-response","170","2.0.0","298814","p8uams6pc6o","null","<p style=""border: 5px solid red;"">Incorrect.</p>","null","","",""
"","","","","","html-keyboard-response","171","2.0.0","299820","p8uams6pc6o","null","<div style=""font-size: 75px;"">+</div>","null","","",""
"","","","","","image-keyboard-response","172","2.0.0","301556","p8uams6pc6o","1734","stimuli/12_100_R.jpg","j","response","j","true"
"","","","","","html-keyboard-response","173","2.0.0","302064","p8uams6pc6o","null","<p style=""border: 5px solid green;"">Correct!</p>","null","","",""
"","","","","","html-keyboard-response","174","2.0.0","303075","p8uams6pc6o","null","<div style=""font-size: 75px;"">+</div>","null","","",""
"","","","","","image-keyboard-response","175","2.0.0","304977","p8uams6pc6o","1900","stimuli/13_50_R.jpg","j","response","j","true"
"","","","","","html-keyboard-response","176","2.0.0","305482","p8uams6pc6o","null","<p style=""border: 5px solid green;"">Correct!</p>","null","","",""
"","","","","","html-keyboard-response","177","2.0.0","306499","p8uams6pc6o","null","<div style=""font-size: 75px;"">+</div>","null","","",""
"","","","","","image-keyboard-response","178","2.0.0","308105","p8uams6pc6o","1604","stimuli/12_150.jpg","j","response","f","false"
"","","","","","html-keyboard-response","179","2.0.0","308610","p8uams6pc6o","null","<p style=""border: 5px solid red;"">Incorrect.</p>","null","","",""
"","","","","","html-keyboard-response","180","2.0.0","309622","p8uams6pc6o","null","<div style=""font-size: 75px;"">+</div>","null","","",""
"","","","","","image-keyboard-response","181","2.0.0","310526","p8uams6pc6o","902","stimuli/3_100_R.jpg","j","response","j","true"
"","","","","","html-keyboard-response","182","2.0.0","311032","p8uams6pc6o","null","<p style=""border: 5px solid green;"">Correct!</p>","null","","",""
"","","","","","html-keyboard-response","183","2.0.0","312046","p8uams6pc6o","null","<div style=""font-size: 75px;"">+</div>","null","","",""
"","","","","","image-keyboard-response","184","2.0.0","313485","p8uams6pc6o","1437","stimuli/36_150_R.jpg","j","response","j","true"
"","","","","","html-keyboard-response","185","2.0.0","313993","p8uams6pc6o","null","<p style=""border: 5px solid green;"">Correct!</p>","null","","",""
"","","","","","html-keyboard-response","186","2.0.0","314996","p8uams6pc6o","null","<div style=""font-size: 75px;"">+</div>","null","","",""
"","","","","","image-keyboard-response","187","2.0.0","315996","p8uams6pc6o","998","stimuli/42_150_R.jpg","f","response","j","false"
"","","","","","html-keyboard-response","188","2.0.0","316499","p8uams6pc6o","null","<p style=""border: 5px solid red;"">Incorrect.</p>","null","","",""
"","","","","","html-keyboard-response","189","2.0.0","317510","p8uams6pc6o","null","<div style=""font-size: 75px;"">+</div>","null","","",""
"","","","","","image-keyboard-response","190","2.0.0","318735","p8uams6pc6o","1223","stimuli/39_0_R.jpg","j","response","j","true"
"","","","","","html-keyboard-response","191","2.0.0","319248","p8uams6pc6o","null","<p style=""border: 5px solid green;"">Correct!</p>","null","","",""
"","","","","","html-keyboard-response","192","2.0.0","320258","p8uams6pc6o","null","<div style=""font-size: 75px;"">+</div>","null","","",""
"","","","","","image-keyboard-response","193","2.0.0","321147","p8uams6pc6o","887","stimuli/20_50.jpg","f","response","f","true"
"","","","","","html-keyboard-response","194","2.0.0","321650","p8uams6pc6o","null","<p style=""border: 5px solid green;"">Correct!</p>","null","","",""
"","","","","","html-keyboard-response","195","2.0.0","322658","p8uams6pc6o","null","<div style=""font-size: 75px;"">+</div>","null","","",""
"","","","","","image-keyboard-response","196","2.0.0","324686","p8uams6pc6o","2026","stimuli/26_0_R.jpg","j","response","j","true"
"","","","","","html-keyboard-response","197","2.0.0","325191","p8uams6pc6o","null","<p style=""border: 5px solid green;"">Correct!</p>","null","","",""
"","","","","","html-keyboard-response","198","2.0.0","326199","p8uams6pc6o","null","<div style=""font-size: 75px;"">+</div>","null","","",""
"","","","","","image-keyboard-response","199","2.0.0","329566","p8uams6pc6o","3365","stimuli/40_50_R.jpg","j","response","j","true"
"","","","","","html-keyboard-response","200","2.0.0","330071","p8uams6pc6o","null","<p style=""border: 5px solid green;"">Correct!</p>","null","","",""
"","","","","","html-keyboard-response","201","2.0.0","331086","p8uams6pc6o","null","<div style=""font-size: 75px;"">+</div>","null","","",""
"","","","","","image-keyboard-response","202","2.0.0","332407","p8uams6pc6o","1319","stimuli/9_150_R.jpg","f","response","j","false"
"","","","","","html-keyboard-response","203","2.0.0","332916","p8uams6pc6o","null","<p style=""border: 5px solid red;"">Incorrect.</p>","null","","",""
"","","","","","html-keyboard-response","204","2.0.0","333921","p8uams6pc6o","null","<div style=""font-size: 75px;"">+</div>","null","","",""
"","","","","","image-keyboard-response","205","2.0.0","337366","p8uams6pc6o","3443","stimuli/34_50.jpg","f","response","f","true"
"","","","","","html-keyboard-response","206","2.0.0","337872","p8uams6pc6o","null","<p style=""border: 5px solid green;"">Correct!</p>","null","","",""
"","","","","","html-keyboard-response","207","2.0.0","338878","p8uams6pc6o","null","<div style=""font-size: 75px;"">+</div>","null","","",""
"","","","","","image-keyboard-response","208","2.0.0","341046","p8uams6pc6o","2166","stimuli/6_100.jpg","j","response","f","false"
"","","","","","html-keyboard-response","209","2.0.0","341552","p8uams6pc6o","null","<p style=""border: 5px solid red;"">Incorrect.</p>","null","","",""
"","","","","","html-keyboard-response","210","2.0.0","342562","p8uams6pc6o","null","<div style=""font-size: 75px;"">+</div>","null","","",""
"","","","","","image-keyboard-response","211","2.0.0","343809","p8uams6pc6o","1245","stimuli/37_150.jpg","j","response","f","false"
"","","","","","html-keyboard-response","212","2.0.0","344316","p8uams6pc6o","null","<p style=""border: 5px solid red;"">Incorrect.</p>","null","","",""
"","","","","","html-keyboard-response","213","2.0.0","345329","p8uams6pc6o","null","<div style=""font-size: 75px;"">+</div>","null","","",""
"","","","","","image-keyboard-response","214","2.0.0","346286","p8uams6pc6o","955","stimuli/45_100.jpg","f","response","f","true"
"","","","","","html-keyboard-response","215","2.0.0","346795","p8uams6pc6o","null","<p style=""border: 5px solid green;"">Correct!</p>","null","","",""
"","","","","","html-keyboard-response","216","2.0.0","347807","p8uams6pc6o","null","<div style=""font-size: 75px;"">+</div>","null","","",""
"","","","","","image-keyboard-response","217","2.0.0","349216","p8uams6pc6o","1407","stimuli/23_100.jpg","f","response","f","true"
"","","","","","html-keyboard-response","218","2.0.0","349725","p8uams6pc6o","null","<p style=""border: 5px solid green;"">Correct!</p>","null","","",""
"","","","","","html-keyboard-response","219","2.0.0","350739","p8uams6pc6o","null","<div style=""font-size: 75px;"">+</div>","null","","",""
"","","","","","image-keyboard-response","220","2.0.0","351886","p8uams6pc6o","1145","stimuli/26_100.jpg","j","response","f","false"
"","","","","","html-keyboard-response","221","2.0.0","352389","p8uams6pc6o","null","<p style=""border: 5px solid red;"">Incorrect.</p>","null","","",""
"","","","","","html-keyboard-response","222","2.0.0","353394","p8uams6pc6o","null","<div style=""font-size: 75px;"">+</div>","null","","",""
"","","","","","image-keyboard-response","223","2.0.0","354356","p8uams6pc6o","961","stimuli/6_50_R.jpg","j","response","j","true"
"","","","","","html-keyboard-response","224","2.0.0","354861","p8uams6pc6o","null","<p style=""border: 5px solid green;"">Correct!</p>","null","","",""
"","","","","","html-keyboard-response","225","2.0.0","355878","p8uams6pc6o","null","<div style=""font-size: 75px;"">+</div>","null","","",""
"","","","","","image-keyboard-response","226","2.0.0","356776","p8uams6pc6o","896","stimuli/10_0_R.jpg","f","response","j","false"
"","","","","","html-keyboard-response","227","2.0.0","357292","p8uams6pc6o","null","<p style=""border: 5px solid red;"">Incorrect.</p>","null","","",""
"","","","","","html-keyboard-response","228","2.0.0","358297","p8uams6pc6o","null","<div style=""font-size: 75px;"">+</div>","null","","",""
"","","","","","image-keyboard-response","229","2.0.0","359266","p8uams6pc6o","967","stimuli/20_0_R.jpg","f","response","j","false"
"","","","","","html-keyboard-response","230","2.0.0","359771","p8uams6pc6o","null","<p style=""border: 5px solid red;"">Incorrect.</p>","null","","",""
"","","","","","html-keyboard-response","231","2.0.0","360775","p8uams6pc6o","null","<div style=""font-size: 75px;"">+</div>","null","","",""
"","","","","","image-keyboard-response","232","2.0.0","361818","p8uams6pc6o","1041","stimuli/27_0.jpg","f","response","f","true"
"","","","","","html-keyboard-response","233","2.0.0","362328","p8uams6pc6o","null","<p style=""border: 5px solid green;"">Correct!</p>","null","","",""
"","","","","","html-keyboard-response","234","2.0.0","363343","p8uams6pc6o","null","<div style=""font-size: 75px;"">+</div>","null","","",""
"","","","","","image-keyboard-response","235","2.0.0","364276","p8uams6pc6o","932","stimuli/47_0.jpg","f","response","f","true"
"","","","","","html-keyboard-response","236","2.0.0","364782","p8uams6pc6o","null","<p style=""border: 5px solid green;"">Correct!</p>","null","","",""
"","","","","","html-keyboard-response","237","2.0.0","365791","p8uams6pc6o","null","<div style=""font-size: 75px;"">+</div>","null","","",""
"","","","","","image-keyboard-response","238","2.0.0","366726","p8uams6pc6o","933","stimuli/4_150.jpg","j","response","f","false"
"","","","","","html-keyboard-response","239","2.0.0","367231","p8uams6pc6o","null","<p style=""border: 5px solid red;"">Incorrect.</p>","null","","",""
"","","","","","html-keyboard-response","240","2.0.0","368236","p8uams6pc6o","null","<div style=""font-size: 75px;"">+</div>","null","","",""
"","","","","","image-keyboard-response","241","2.0.0","369397","p8uams6pc6o","1159","stimuli/43_150_R.jpg","j","response","j","true"
"","","","","","html-keyboard-response","242","2.0.0","369901","p8uams6pc6o","null","<p style=""border: 5px solid green;"">Correct!</p>","null","","",""
"","","","","","html-keyboard-response","243","2.0.0","370911","p8uams6pc6o","null","<div style=""font-size: 75px;"">+</div>","null","","",""
"","","","","","image-keyboard-response","244","2.0.0","372266","p8uams6pc6o","1354","stimuli/6_50.jpg","f","response","f","true"
"","","","","","html-keyboard-response","245","2.0.0","372772","p8uams6pc6o","null","<p style=""border: 5px solid green;"">Correct!</p>","null","","",""
"","","","","","html-keyboard-response","246","2.0.0","373788","p8uams6pc6o","null","<div style=""font-size: 75px;"">+</div>","null","","",""
"","","","","","image-keyboard-response","247","2.0.0","375137","p8uams6pc6o","1348","stimuli/39_150.jpg","f","response","f","true"
"","","","","","html-keyboard-response","248","2.0.0","375653","p8uams6pc6o","null","<p style=""border: 5px solid green;"">Correct!</p>","null","","",""
"","","","","","html-keyboard-response","249","2.0.0","376661","p8uams6pc6o","null","<div style=""font-size: 75px;"">+</div>","null","","",""
"","","","","","image-keyboard-response","250","2.0.0","378296","p8uams6pc6o","1633","stimuli/44_50_R.jpg","j","response","j","true"
"","","","","","html-keyboard-response","251","2.0.0","378801","p8uams6pc6o","null","<p style=""border: 5px solid green;"">Correct!</p>","null","","",""
"","","","","","html-keyboard-response","252","2.0.0","379816","p8uams6pc6o","null","<div style=""font-size: 75px;"">+</div>","null","","",""
"","","","","","image-keyboard-response","253","2.0.0","380789","p8uams6pc6o","970","stimuli/22_0.jpg","f","response","f","true"
"","","","","","html-keyboard-response","254","2.0.0","381299","p8uams6pc6o","null","<p style=""border: 5px solid green;"">Correct!</p>","null","","",""
"","","","","","html-keyboard-response","255","2.0.0","382306","p8uams6pc6o","null","<div style=""font-size: 75px;"">+</div>","null","","",""
"","","","","","image-keyboard-response","256","2.0.0","383179","p8uams6pc6o","870","stimuli/30_150_R.jpg","j","response","j","true"
"","","","","","html-keyboard-response","257","2.0.0","383682","p8uams6pc6o","null","<p style=""border: 5px solid green;"">Correct!</p>","null","","",""
"","","","","","html-keyboard-response","258","2.0.0","384692","p8uams6pc6o","null","<div style=""font-size: 75px;"">+</div>","null","","",""
"","","","","","image-keyboard-response","259","2.0.0","386067","p8uams6pc6o","1373","stimuli/39_100.jpg","j","response","f","false"
"","","","","","html-keyboard-response","260","2.0.0","386572","p8uams6pc6o","null","<p style=""border: 5px solid red;"">Incorrect.</p>","null","","",""
"","","","","","html-keyboard-response","261","2.0.0","387575","p8uams6pc6o","null","<div style=""font-size: 75px;"">+</div>","null","","",""
"","","","","","image-keyboard-response","262","2.0.0","388618","p8uams6pc6o","1041","stimuli/24_100_R.jpg","f","response","j","false"
"","","","","","html-keyboard-response","263","2.0.0","389133","p8uams6pc6o","null","<p style=""border: 5px solid red;"">Incorrect.</p>","null","","",""
"","","","","","html-keyboard-response","264","2.0.0","390149","p8uams6pc6o","null","<div style=""font-size: 75px;"">+</div>","null","","",""
"","","","","","image-keyboard-response","265","2.0.0","391127","p8uams6pc6o","976","stimuli/41_0.jpg","f","response","f","true"
"","","","","","html-keyboard-response","266","2.0.0","391643","p8uams6pc6o","null","<p style=""border: 5px solid green;"">Correct!</p>","null","","",""
"","","","","","html-keyboard-response","267","2.0.0","392652","p8uams6pc6o","null","<div style=""font-size: 75px;"">+</div>","null","","",""
"","","","","","image-keyboard-response","268","2.0.0","393639","p8uams6pc6o","984","stimuli/2_0_R.jpg","f","response","j","false"
"","","","","","html-keyboard-response","269","2.0.0","394151","p8uams6pc6o","null","<p style=""border: 5px solid red;"">Incorrect.</p>","null","","",""
"","","","","","html-keyboard-response","270","2.0.0","395162","p8uams6pc6o","null","<div style=""font-size: 75px;"">+</div>","null","","",""
"","","","","","image-keyboard-response","271","2.0.0","396787","p8uams6pc6o","1623","stimuli/41_150_R.jpg","j","response","j","true"
"","","","","","html-keyboard-response","272","2.0.0","397296","p8uams6pc6o","null","<p style=""border: 5px solid green;"">Correct!</p>","null","","",""
"","","","","","html-keyboard-response","273","2.0.0","398298","p8uams6pc6o","null","<div style=""font-size: 75px;"">+</div>","null","","",""
"","","","","","image-keyboard-response","274","2.0.0","399319","p8uams6pc6o","1018","stimuli/9_50.jpg","f","response","f","true"
"","","","","","html-keyboard-response","275","2.0.0","399827","p8uams6pc6o","null","<p style=""border: 5px solid green;"">Correct!</p>","null","","",""
"","","","","","html-keyboard-response","276","2.0.0","400838","p8uams6pc6o","null","<div style=""font-size: 75px;"">+</div>","null","","",""
"","","","","","image-keyboard-response","277","2.0.0","402057","p8uams6pc6o","1218","stimuli/35_100.jpg","f","response","f","true"
"","","","","","html-keyboard-response","278","2.0.0","402576","p8uams6pc6o","null","<p style=""border: 5px solid green;"">Correct!</p>","null","","",""
"","","","","","html-keyboard-response","279","2.0.0","403586","p8uams6pc6o","null","<div style=""font-size: 75px;"">+</div>","null","","",""
"","","","","","image-keyboard-response","280","2.0.0","404548","p8uams6pc6o","961","stimuli/36_50_R.jpg","j","response","j","true"
"","","","","","html-keyboard-response","281","2.0.0","405050","p8uams6pc6o","null","<p style=""border: 5px solid green;"">Correct!</p>","null","","",""
"","","","","","html-keyboard-response","282","2.0.0","406052","p8uams6pc6o","null","<div style=""font-size: 75px;"">+</div>","null","","",""
"","","","","","image-keyboard-response","283","2.0.0","407327","p8uams6pc6o","1273","stimuli/29_150.jpg","f","response","f","true"
"","","","","","html-keyboard-response","284","2.0.0","407841","p8uams6pc6o","null","<p style=""border: 5px solid green;"">Correct!</p>","null","","",""
"","","","","","html-keyboard-response","285","2.0.0","408843","p8uams6pc6o","null","<div style=""font-size: 75px;"">+</div>","null","","",""
"","","","","","image-keyboard-response","286","2.0.0","410899","p8uams6pc6o","2055","stimuli/26_100_R.jpg","j","response","j","true"
"","","","","","html-keyboard-response","287","2.0.0","411408","p8uams6pc6o","null","<p style=""border: 5px solid green;"">Correct!</p>","null","","",""
"","","","","","html-keyboard-response","288","2.0.0","412415","p8uams6pc6o","null","<div style=""font-size: 75px;"">+</div>","null","","",""
"","","","","","image-keyboard-response","289","2.0.0","413508","p8uams6pc6o","1091","stimuli/45_50_R.jpg","j","response","j","true"
"","","","","","html-keyboard-response","290","2.0.0","414025","p8uams6pc6o","null","<p style=""border: 5px solid green;"">Correct!</p>","null","","",""
"","","","","","html-keyboard-response","291","2.0.0","415032","p8uams6pc6o","null","<div style=""font-size: 75px;"">+</div>","null","","",""
"","","","","","image-keyboard-response","292","2.0.0","417447","p8uams6pc6o","2413","stimuli/45_0_R.jpg","j","response","j","true"
"","","","","","html-keyboard-response","293","2.0.0","417958","p8uams6pc6o","null","<p style=""border: 5px solid green;"">Correct!</p>","null","","",""
"","","","","","html-keyboard-response","294","2.0.0","419727","p8uams6pc6o","1767","<p>Thank you for participating!</p><p>Please press space to answer our survey.</p>"," ","","",""
"","","","","","survey-html-form","295","null","504662","p8uams6pc6o","84928","","{""response_1"":""Moderately clear and lively"",""response_2"":""Moderately clear and lively"",""response_3"":""Moderately clear and lively"",""response_4"":""Clear and lively"",""response_5"":""Clear and lively"",""response_6"":""Moderately clear and lively"",""response_7"":""Clear and lively"",""response_8"":""Moderately clear and lively"",""response_9"":""Dim and vague; flat"",""response_10"":""Moderately clear and lively"",""response_11"":""Dim and vague; flat"",""response_12"":""Dim and vague; flat"",""response_13"":""Dim and vague; flat"",""response_14"":""Moderately clear and lively"",""response_15"":""Clear and lively"",""response_16"":""Clear and lively""}","","",""
"","","","","","survey-html-form","296","null","543118","p8uams6pc6o","38452","","{""age"":""22"",""gender"":""female"",""education"":""some-college"",""handedness"":""left"",""vision"":""normal"",""technical_difficulties"":""N/A"",""knowledge_check"":""It was testing to see if I could mentally rotate objects in my head. ""}","","",""
