"success","timeout","failed_images","failed_audio","failed_video","trial_type","trial_index","plugin_version","time_elapsed","random_id","rt","stimulus","response","task","correct_response","correct"
"true","false","[]","[]","[]","preload","0","2.0.0","4891","p8zhmqtka09","","","","","",""
"true","","","","","fullscreen","1","2.0.0","8052","p8zhmqtka09","2077","","","","",""
"","","","","","html-keyboard-response","2","2.0.0","8067","p8zhmqtka09","13","Welcome to the experiment. Press any key to begin.","c","","",""
"","","","","","survey-text","3","2.0.0","9742","p8zhmqtka09","1634","","{""participant_id"":""camel""}","","",""
"","","","","","html-keyboard-response","4","2.0.0","16738","p8zhmqtka09","6994","
        <p>Welcome to the experiment.</p>
        <p>In this task, you will see pairs of images.</p>
        <p>Your job is to determine whether the image on the right is a rotated version of the image on the left.</p>
        <p>Press the <strong>F</strong> key if the images are the same.</p>
        <p>Press the <strong>J</strong> key if the images are different.</p>
        <p>Press any key to begin.</p>
    "," ","","",""
"","","","","","html-keyboard-response","5","2.0.0","17741","p8zhmqtka09","null","<div style=""font-size: 75px;"">+</div>","null","","",""
"","","","","","image-keyboard-response","6","2.0.0","19839","p8zhmqtka09","2090","stimuli/3_150.jpg","f","response","f","true"
"","","","","","html-keyboard-response","7","2.0.0","20341","p8zhmqtka09","null","<p style=""border: 5px solid green;"">Correct!</p>","null","","",""
"","","","","","html-keyboard-response","8","2.0.0","21343","p8zhmqtka09","null","<div style=""font-size: 75px;"">+</div>","null","","",""
"","","","","","image-keyboard-response","9","2.0.0","22818","p8zhmqtka09","1466","stimuli/20_50_R.jpg","f","response","j","false"
"","","","","","html-keyboard-response","10","2.0.0","23324","p8zhmqtka09","null","<p style=""border: 5px solid red;"">Incorrect.</p>","null","","",""
"","","","","","html-keyboard-response","11","2.0.0","24327","p8zhmqtka09","null","<div style=""font-size: 75px;"">+</div>","null","","",""
"","","","","","image-keyboard-response","12","2.0.0","25588","p8zhmqtka09","1253","stimuli/18_50.jpg","f","response","f","true"
"","","","","","html-keyboard-response","13","2.0.0","26096","p8zhmqtka09","null","<p style=""border: 5px solid green;"">Correct!</p>","null","","",""
"","","","","","html-keyboard-response","14","2.0.0","27105","p8zhmqtka09","null","<div style=""font-size: 75px;"">+</div>","null","","",""
"","","","","","image-keyboard-response","15","2.0.0","29761","p8zhmqtka09","2650","stimuli/41_150_R.jpg","j","response","j","true"
"","","","","","html-keyboard-response","16","2.0.0","30268","p8zhmqtka09","null","<p style=""border: 5px solid green;"">Correct!</p>","null","","",""
"","","","","","html-keyboard-response","17","2.0.0","31278","p8zhmqtka09","null","<div style=""font-size: 75px;"">+</div>","null","","",""
"","","","","","image-keyboard-response","18","2.0.0","34034","p8zhmqtka09","2749","stimuli/45_100_R.jpg","f","response","j","false"
"","","","","","html-keyboard-response","19","2.0.0","34540","p8zhmqtka09","null","<p style=""border: 5px solid red;"">Incorrect.</p>","null","","",""
"","","","","","html-keyboard-response","20","2.0.0","35590","p8zhmqtka09","null","<div style=""font-size: 75px;"">+</div>","null","","",""
"","","","","","image-keyboard-response","21","2.0.0","39722","p8zhmqtka09","4125","stimuli/33_150_R.jpg","j","response","j","true"
"","","","","","html-keyboard-response","22","2.0.0","40229","p8zhmqtka09","null","<p style=""border: 5px solid green;"">Correct!</p>","null","","",""
"","","","","","html-keyboard-response","23","2.0.0","41241","p8zhmqtka09","null","<div style=""font-size: 75px;"">+</div>","null","","",""
"","","","","","image-keyboard-response","24","2.0.0","44948","p8zhmqtka09","3700","stimuli/44_150.jpg","j","response","f","false"
"","","","","","html-keyboard-response","25","2.0.0","45454","p8zhmqtka09","null","<p style=""border: 5px solid red;"">Incorrect.</p>","null","","",""
"","","","","","html-keyboard-response","26","2.0.0","46467","p8zhmqtka09","null","<div style=""font-size: 75px;"">+</div>","null","","",""
"","","","","","image-keyboard-response","27","2.0.0","50061","p8zhmqtka09","3587","stimuli/18_0_R.jpg","j","response","j","true"
"","","","","","html-keyboard-response","28","2.0.0","50563","p8zhmqtka09","null","<p style=""border: 5px solid green;"">Correct!</p>","null","","",""
"","","","","","html-keyboard-response","29","2.0.0","51567","p8zhmqtka09","null","<div style=""font-size: 75px;"">+</div>","null","","",""
"","","","","","image-keyboard-response","30","2.0.0","55652","p8zhmqtka09","4079","stimuli/6_0_R.jpg","j","response","j","true"
"","","","","","html-keyboard-response","31","2.0.0","56166","p8zhmqtka09","null","<p style=""border: 5px solid green;"">Correct!</p>","null","","",""
"","","","","","html-keyboard-response","32","2.0.0","57167","p8zhmqtka09","null","<div style=""font-size: 75px;"">+</div>","null","","",""
"","","","","","image-keyboard-response","33","2.0.0","61644","p8zhmqtka09","4470","stimuli/46_150.jpg","f","response","f","true"
"","","","","","html-keyboard-response","34","2.0.0","62145","p8zhmqtka09","null","<p style=""border: 5px solid green;"">Correct!</p>","null","","",""
"","","","","","html-keyboard-response","35","2.0.0","63149","p8zhmqtka09","null","<div style=""font-size: 75px;"">+</div>","null","","",""
"","","","","","image-keyboard-response","36","2.0.0","68261","p8zhmqtka09","5106","stimuli/4_50_R.jpg","j","response","j","true"
"","","","","","html-keyboard-response","37","2.0.0","68776","p8zhmqtka09","null","<p style=""border: 5px solid green;"">Correct!</p>","null","","",""
"","","","","","html-keyboard-response","38","2.0.0","69781","p8zhmqtka09","null","<div style=""font-size: 75px;"">+</div>","null","","",""
"","","","","","image-keyboard-response","39","2.0.0","74085","p8zhmqtka09","4295","stimuli/37_50.jpg","f","response","f","true"
"","","","","","html-keyboard-response","40","2.0.0","74593","p8zhmqtka09","null","<p style=""border: 5px solid green;"">Correct!</p>","null","","",""
"","","","","","html-keyboard-response","41","2.0.0","75596","p8zhmqtka09","null","<div style=""font-size: 75px;"">+</div>","null","","",""
"","","","","","image-keyboard-response","42","2.0.0","79346","p8zhmqtka09","3742","stimuli/42_100.jpg","f","response","f","true"
"","","","","","html-keyboard-response","43","2.0.0","79847","p8zhmqtka09","null","<p style=""border: 5px solid green;"">Correct!</p>","null","","",""
"","","","","","html-keyboard-response","44","2.0.0","80853","p8zhmqtka09","null","<div style=""font-size: 75px;"">+</div>","null","","",""
"","","","","","image-keyboard-response","45","2.0.0","84069","p8zhmqtka09","3210","stimuli/11_150.jpg","j","response","f","false"
"","","","","","html-keyboard-response","46","2.0.0","84583","p8zhmqtka09","null","<p style=""border: 5px solid red;"">Incorrect.</p>","null","","",""
"","","","","","html-keyboard-response","47","2.0.0","85590","p8zhmqtka09","null","<div style=""font-size: 75px;"">+</div>","null","","",""
"","","","","","image-keyboard-response","48","2.0.0","92069","p8zhmqtka09","6475","stimuli/39_100.jpg","f","response","f","true"
"","","","","","html-keyboard-response","49","2.0.0","92580","p8zhmqtka09","null","<p style=""border: 5px solid green;"">Correct!</p>","null","","",""
"","","","","","html-keyboard-response","50","2.0.0","93584","p8zhmqtka09","null","<div style=""font-size: 75px;"">+</div>","null","","",""
"","","","","","image-keyboard-response","51","2.0.0","94600","p8zhmqtka09","1010","stimuli/34_0.jpg","f","response","f","true"
"","","","","","html-keyboard-response","52","2.0.0","95110","p8zhmqtka09","null","<p style=""border: 5px solid green;"">Correct!</p>","null","","",""
"","","","","","html-keyboard-response","53","2.0.0","96119","p8zhmqtka09","null","<div style=""font-size: 75px;"">+</div>","null","","",""
"","","","","","image-keyboard-response","54","2.0.0","98194","p8zhmqtka09","2071","stimuli/28_0_R.jpg","j","response","j","true"
"","","","","","html-keyboard-response","55","2.0.0","98705","p8zhmqtka09","null","<p style=""border: 5px solid green;"">Correct!</p>","null","","",""
"","","","","","html-keyboard-response","56","2.0.0","99710","p8zhmqtka09","null","<div style=""font-size: 75px;"">+</div>","null","","",""
"","","","","","image-keyboard-response","57","2.0.0","101176","p8zhmqtka09","1460","stimuli/4_0_R.jpg","j","response","j","true"
"","","","","","html-keyboard-response","58","2.0.0","101725","p8zhmqtka09","null","<p style=""border: 5px solid green;"">Correct!</p>","null","","",""
"","","","","","html-keyboard-response","59","2.0.0","102731","p8zhmqtka09","null","<div style=""font-size: 75px;"">+</div>","null","","",""
"","","","","","image-keyboard-response","60","2.0.0","106514","p8zhmqtka09","3778","stimuli/13_100.jpg","f","response","f","true"
"","","","","","html-keyboard-response","61","2.0.0","107025","p8zhmqtka09","null","<p style=""border: 5px solid green;"">Correct!</p>","null","","",""
"","","","","","html-keyboard-response","62","2.0.0","108032","p8zhmqtka09","null","<div style=""font-size: 75px;"">+</div>","null","","",""
"","","","","","image-keyboard-response","63","2.0.0","110679","p8zhmqtka09","2639","stimuli/2_150.jpg","f","response","f","true"
"","","","","","html-keyboard-response","64","2.0.0","111184","p8zhmqtka09","null","<p style=""border: 5px solid green;"">Correct!</p>","null","","",""
"","","","","","html-keyboard-response","65","2.0.0","112191","p8zhmqtka09","null","<div style=""font-size: 75px;"">+</div>","null","","",""
"","","","","","image-keyboard-response","66","2.0.0","115279","p8zhmqtka09","3081","stimuli/43_100_R.jpg","j","response","j","true"
"","","","","","html-keyboard-response","67","2.0.0","115794","p8zhmqtka09","null","<p style=""border: 5px solid green;"">Correct!</p>","null","","",""
"","","","","","html-keyboard-response","68","2.0.0","116800","p8zhmqtka09","null","<div style=""font-size: 75px;"">+</div>","null","","",""
"","","","","","image-keyboard-response","69","2.0.0","117942","p8zhmqtka09","1136","stimuli/6_0.jpg","f","response","f","true"
"","","","","","html-keyboard-response","70","2.0.0","118456","p8zhmqtka09","null","<p style=""border: 5px solid green;"">Correct!</p>","null","","",""
"","","","","","html-keyboard-response","71","2.0.0","119464","p8zhmqtka09","null","<div style=""font-size: 75px;"">+</div>","null","","",""
"","","","","","image-keyboard-response","72","2.0.0","122630","p8zhmqtka09","3161","stimuli/36_100.jpg","f","response","f","true"
"","","","","","html-keyboard-response","73","2.0.0","123136","p8zhmqtka09","null","<p style=""border: 5px solid green;"">Correct!</p>","null","","",""
"","","","","","html-keyboard-response","74","2.0.0","124145","p8zhmqtka09","null","<div style=""font-size: 75px;"">+</div>","null","","",""
"","","","","","image-keyboard-response","75","2.0.0","124798","p8zhmqtka09","646","stimuli/3_0.jpg","f","response","f","true"
"","","","","","html-keyboard-response","76","2.0.0","125303","p8zhmqtka09","null","<p style=""border: 5px solid green;"">Correct!</p>","null","","",""
"","","","","","html-keyboard-response","77","2.0.0","126310","p8zhmqtka09","null","<div style=""font-size: 75px;"">+</div>","null","","",""
"","","","","","image-keyboard-response","78","2.0.0","129688","p8zhmqtka09","3371","stimuli/45_0_R.jpg","j","response","j","true"
"","","","","","html-keyboard-response","79","2.0.0","130199","p8zhmqtka09","null","<p style=""border: 5px solid green;"">Correct!</p>","null","","",""
"","","","","","html-keyboard-response","80","2.0.0","131328","p8zhmqtka09","null","<div style=""font-size: 75px;"">+</div>","null","","",""
"","","","","","image-keyboard-response","81","2.0.0","133917","p8zhmqtka09","2582","stimuli/11_50_R.jpg","f","response","j","false"
"","","","","","html-keyboard-response","82","2.0.0","134420","p8zhmqtka09","null","<p style=""border: 5px solid red;"">Incorrect.</p>","null","","",""
"","","","","","html-keyboard-response","83","2.0.0","135426","p8zhmqtka09","null","<div style=""font-size: 75px;"">+</div>","null","","",""
"","","","","","image-keyboard-response","84","2.0.0","136167","p8zhmqtka09","733","stimuli/22_0.jpg","f","response","f","true"
"","","","","","html-keyboard-response","85","2.0.0","136681","p8zhmqtka09","null","<p style=""border: 5px solid green;"">Correct!</p>","null","","",""
"","","","","","html-keyboard-response","86","2.0.0","137692","p8zhmqtka09","null","<div style=""font-size: 75px;"">+</div>","null","","",""
"","","","","","image-keyboard-response","87","2.0.0","138388","p8zhmqtka09","689","stimuli/20_0_R.jpg","f","response","j","false"
"","","","","","html-keyboard-response","88","2.0.0","138899","p8zhmqtka09","null","<p style=""border: 5px solid red;"">Incorrect.</p>","null","","",""
"","","","","","html-keyboard-response","89","2.0.0","139907","p8zhmqtka09","null","<div style=""font-size: 75px;"">+</div>","null","","",""
"","","","","","image-keyboard-response","90","2.0.0","141540","p8zhmqtka09","1627","stimuli/7_0_R.jpg","j","response","j","true"
"","","","","","html-keyboard-response","91","2.0.0","142042","p8zhmqtka09","null","<p style=""border: 5px solid green;"">Correct!</p>","null","","",""
"","","","","","html-keyboard-response","92","2.0.0","143045","p8zhmqtka09","null","<div style=""font-size: 75px;"">+</div>","null","","",""
"","","","","","image-keyboard-response","93","2.0.0","147465","p8zhmqtka09","4413","stimuli/10_100_R.jpg","f","response","j","false"
"","","","","","html-keyboard-response","94","2.0.0","147975","p8zhmqtka09","null","<p style=""border: 5px solid red;"">Incorrect.</p>","null","","",""
"","","","","","html-keyboard-response","95","2.0.0","148989","p8zhmqtka09","null","<div style=""font-size: 75px;"">+</div>","null","","",""
"","","","","","image-keyboard-response","96","2.0.0","152639","p8zhmqtka09","3645","stimuli/30_100.jpg","f","response","f","true"
"","","","","","html-keyboard-response","97","2.0.0","153153","p8zhmqtka09","null","<p style=""border: 5px solid green;"">Correct!</p>","null","","",""
"","","","","","html-keyboard-response","98","2.0.0","154162","p8zhmqtka09","null","<div style=""font-size: 75px;"">+</div>","null","","",""
"","","","","","image-keyboard-response","99","2.0.0","155142","p8zhmqtka09","974","stimuli/39_50_R.jpg","j","response","j","true"
"","","","","","html-keyboard-response","100","2.0.0","155646","p8zhmqtka09","null","<p style=""border: 5px solid green;"">Correct!</p>","null","","",""
"","","","","","html-keyboard-response","101","2.0.0","156652","p8zhmqtka09","null","<div style=""font-size: 75px;"">+</div>","null","","",""
"","","","","","image-keyboard-response","102","2.0.0","161281","p8zhmqtka09","4623","stimuli/29_150.jpg","f","response","f","true"
"","","","","","html-keyboard-response","103","2.0.0","161793","p8zhmqtka09","null","<p style=""border: 5px solid green;"">Correct!</p>","null","","",""
"","","","","","html-keyboard-response","104","2.0.0","162798","p8zhmqtka09","null","<div style=""font-size: 75px;"">+</div>","null","","",""
"","","","","","image-keyboard-response","105","2.0.0","166070","p8zhmqtka09","3266","stimuli/34_150_R.jpg","f","response","j","false"
"","","","","","html-keyboard-response","106","2.0.0","166580","p8zhmqtka09","null","<p style=""border: 5px solid red;"">Incorrect.</p>","null","","",""
"","","","","","html-keyboard-response","107","2.0.0","167587","p8zhmqtka09","null","<div style=""font-size: 75px;"">+</div>","null","","",""
"","","","","","image-keyboard-response","108","2.0.0","171702","p8zhmqtka09","4108","stimuli/10_150.jpg","f","response","f","true"
"","","","","","html-keyboard-response","109","2.0.0","172216","p8zhmqtka09","null","<p style=""border: 5px solid green;"">Correct!</p>","null","","",""
"","","","","","html-keyboard-response","110","2.0.0","173225","p8zhmqtka09","null","<div style=""font-size: 75px;"">+</div>","null","","",""
"","","","","","image-keyboard-response","111","2.0.0","177874","p8zhmqtka09","4642","stimuli/27_100.jpg","f","response","f","true"
"","","","","","html-keyboard-response","112","2.0.0","178376","p8zhmqtka09","null","<p style=""border: 5px solid green;"">Correct!</p>","null","","",""
"","","","","","html-keyboard-response","113","2.0.0","179382","p8zhmqtka09","null","<div style=""font-size: 75px;"">+</div>","null","","",""
"","","","","","image-keyboard-response","114","2.0.0","180162","p8zhmqtka09","772","stimuli/21_0.jpg","f","response","f","true"
"","","","","","html-keyboard-response","115","2.0.0","180667","p8zhmqtka09","null","<p style=""border: 5px solid green;"">Correct!</p>","null","","",""
"","","","","","html-keyboard-response","116","2.0.0","181705","p8zhmqtka09","null","<div style=""font-size: 75px;"">+</div>","null","","",""
"","","","","","image-keyboard-response","117","2.0.0","184393","p8zhmqtka09","2680","stimuli/6_100.jpg","f","response","f","true"
"","","","","","html-keyboard-response","118","2.0.0","184899","p8zhmqtka09","null","<p style=""border: 5px solid green;"">Correct!</p>","null","","",""
"","","","","","html-keyboard-response","119","2.0.0","185913","p8zhmqtka09","null","<div style=""font-size: 75px;"">+</div>","null","","",""
"","","","","","image-keyboard-response","120","2.0.0","187076","p8zhmqtka09","1155","stimuli/30_50_R.jpg","j","response","j","true"
"","","","","","html-keyboard-response","121","2.0.0","187580","p8zhmqtka09","null","<p style=""border: 5px solid green;"">Correct!</p>","null","","",""
"","","","","","html-keyboard-response","122","2.0.0","188592","p8zhmqtka09","null","<div style=""font-size: 75px;"">+</div>","null","","",""
"","","","","","image-keyboard-response","123","2.0.0","192006","p8zhmqtka09","3406","stimuli/4_150_R.jpg","f","response","j","false"
"","","","","","html-keyboard-response","124","2.0.0","192508","p8zhmqtka09","null","<p style=""border: 5px solid red;"">Incorrect.</p>","null","","",""
"","","","","","html-keyboard-response","125","2.0.0","193604","p8zhmqtka09","null","<div style=""font-size: 75px;"">+</div>","null","","",""
"","","","","","image-keyboard-response","126","2.0.0","194334","p8zhmqtka09","724","stimuli/48_0_R.jpg","f","response","j","false"
"","","","","","html-keyboard-response","127","2.0.0","194841","p8zhmqtka09","null","<p style=""border: 5px solid red;"">Incorrect.</p>","null","","",""
"","","","","","html-keyboard-response","128","2.0.0","195846","p8zhmqtka09","null","<div style=""font-size: 75px;"">+</div>","null","","",""
"","","","","","image-keyboard-response","129","2.0.0","196647","p8zhmqtka09","793","stimuli/47_0_R.jpg","j","response","j","true"
"","","","","","html-keyboard-response","130","2.0.0","197162","p8zhmqtka09","null","<p style=""border: 5px solid green;"">Correct!</p>","null","","",""
"","","","","","html-keyboard-response","131","2.0.0","198292","p8zhmqtka09","null","<div style=""font-size: 75px;"">+</div>","null","","",""
"","","","","","image-keyboard-response","132","2.0.0","203298","p8zhmqtka09","4999","stimuli/25_150.jpg","j","response","f","false"
"","","","","","html-keyboard-response","133","2.0.0","203805","p8zhmqtka09","null","<p style=""border: 5px solid red;"">Incorrect.</p>","null","","",""
"","","","","","html-keyboard-response","134","2.0.0","204811","p8zhmqtka09","null","<div style=""font-size: 75px;"">+</div>","null","","",""
"","","","","","image-keyboard-response","135","2.0.0","206859","p8zhmqtka09","2039","stimuli/47_50_R.jpg","j","response","j","true"
"","","","","","html-keyboard-response","136","2.0.0","207365","p8zhmqtka09","null","<p style=""border: 5px solid green;"">Correct!</p>","null","","",""
"","","","","","html-keyboard-response","137","2.0.0","208371","p8zhmqtka09","null","<div style=""font-size: 75px;"">+</div>","null","","",""
"","","","","","image-keyboard-response","138","2.0.0","214222","p8zhmqtka09","5842","stimuli/37_100.jpg","f","response","f","true"
"","","","","","html-keyboard-response","139","2.0.0","214735","p8zhmqtka09","null","<p style=""border: 5px solid green;"">Correct!</p>","null","","",""
"","","","","","html-keyboard-response","140","2.0.0","215737","p8zhmqtka09","null","<div style=""font-size: 75px;"">+</div>","null","","",""
"","","","","","image-keyboard-response","141","2.0.0","216867","p8zhmqtka09","1124","stimuli/11_50.jpg","j","response","f","false"
"","","","","","html-keyboard-response","142","2.0.0","217376","p8zhmqtka09","null","<p style=""border: 5px solid red;"">Incorrect.</p>","null","","",""
"","","","","","html-keyboard-response","143","2.0.0","218378","p8zhmqtka09","null","<div style=""font-size: 75px;"">+</div>","null","","",""
"","","","","","image-keyboard-response","144","2.0.0","221030","p8zhmqtka09","2644","stimuli/8_100_R.jpg","f","response","j","false"
"","","","","","html-keyboard-response","145","2.0.0","221535","p8zhmqtka09","null","<p style=""border: 5px solid red;"">Incorrect.</p>","null","","",""
"","","","","","html-keyboard-response","146","2.0.0","222538","p8zhmqtka09","null","<div style=""font-size: 75px;"">+</div>","null","","",""
"","","","","","image-keyboard-response","147","2.0.0","224167","p8zhmqtka09","1621","stimuli/25_0_R.jpg","j","response","j","true"
"","","","","","html-keyboard-response","148","2.0.0","224678","p8zhmqtka09","null","<p style=""border: 5px solid green;"">Correct!</p>","null","","",""
"","","","","","html-keyboard-response","149","2.0.0","258308","p8zhmqtka09","null","<p> Take a break! Experiment continues in 30 seconds . </p>","null","","",""
"","","","","","html-keyboard-response","150","2.0.0","259313","p8zhmqtka09","null","<div style=""font-size: 75px;"">+</div>","null","","",""
"","","","","","image-keyboard-response","151","2.0.0","261892","p8zhmqtka09","2572","stimuli/28_50_R.jpg","j","response","j","true"
"","","","","","html-keyboard-response","152","2.0.0","262407","p8zhmqtka09","null","<p style=""border: 5px solid green;"">Correct!</p>","null","","",""
"","","","","","html-keyboard-response","153","2.0.0","263414","p8zhmqtka09","null","<div style=""font-size: 75px;"">+</div>","null","","",""
"","","","","","image-keyboard-response","154","2.0.0","268871","p8zhmqtka09","5448","stimuli/10_50.jpg","j","response","f","false"
"","","","","","html-keyboard-response","155","2.0.0","269384","p8zhmqtka09","null","<p style=""border: 5px solid red;"">Incorrect.</p>","null","","",""
"","","","","","html-keyboard-response","156","2.0.0","270389","p8zhmqtka09","null","<div style=""font-size: 75px;"">+</div>","null","","",""
"","","","","","image-keyboard-response","157","2.0.0","274791","p8zhmqtka09","4395","stimuli/33_50_R.jpg","j","response","j","true"
"","","","","","html-keyboard-response","158","2.0.0","275293","p8zhmqtka09","null","<p style=""border: 5px solid green;"">Correct!</p>","null","","",""
"","","","","","html-keyboard-response","159","2.0.0","276299","p8zhmqtka09","null","<div style=""font-size: 75px;"">+</div>","null","","",""
"","","","","","image-keyboard-response","160","2.0.0","277144","p8zhmqtka09","838","stimuli/41_0_R.jpg","j","response","j","true"
"","","","","","html-keyboard-response","161","2.0.0","277656","p8zhmqtka09","null","<p style=""border: 5px solid green;"">Correct!</p>","null","","",""
"","","","","","html-keyboard-response","162","2.0.0","278664","p8zhmqtka09","null","<div style=""font-size: 75px;"">+</div>","null","","",""
"","","","","","image-keyboard-response","163","2.0.0","280286","p8zhmqtka09","1615","stimuli/12_50.jpg","f","response","f","true"
"","","","","","html-keyboard-response","164","2.0.0","280794","p8zhmqtka09","null","<p style=""border: 5px solid green;"">Correct!</p>","null","","",""
"","","","","","html-keyboard-response","165","2.0.0","281802","p8zhmqtka09","null","<div style=""font-size: 75px;"">+</div>","null","","",""
"","","","","","image-keyboard-response","166","2.0.0","283699","p8zhmqtka09","1890","stimuli/38_100_R.jpg","j","response","j","true"
"","","","","","html-keyboard-response","167","2.0.0","284207","p8zhmqtka09","null","<p style=""border: 5px solid green;"">Correct!</p>","null","","",""
"","","","","","html-keyboard-response","168","2.0.0","285213","p8zhmqtka09","null","<div style=""font-size: 75px;"">+</div>","null","","",""
"","","","","","image-keyboard-response","169","2.0.0","286177","p8zhmqtka09","956","stimuli/32_150.jpg","j","response","f","false"
"","","","","","html-keyboard-response","170","2.0.0","286680","p8zhmqtka09","null","<p style=""border: 5px solid red;"">Incorrect.</p>","null","","",""
"","","","","","html-keyboard-response","171","2.0.0","287683","p8zhmqtka09","null","<div style=""font-size: 75px;"">+</div>","null","","",""
"","","","","","image-keyboard-response","172","2.0.0","288402","p8zhmqtka09","712","stimuli/43_0.jpg","f","response","f","true"
"","","","","","html-keyboard-response","173","2.0.0","288905","p8zhmqtka09","null","<p style=""border: 5px solid green;"">Correct!</p>","null","","",""
"","","","","","html-keyboard-response","174","2.0.0","289919","p8zhmqtka09","null","<div style=""font-size: 75px;"">+</div>","null","","",""
"","","","","","image-keyboard-response","175","2.0.0","294785","p8zhmqtka09","4859","stimuli/22_150_R.jpg","j","response","j","true"
"","","","","","html-keyboard-response","176","2.0.0","295292","p8zhmqtka09","null","<p style=""border: 5px solid green;"">Correct!</p>","null","","",""
"","","","","","html-keyboard-response","177","2.0.0","296305","p8zhmqtka09","null","<div style=""font-size: 75px;"">+</div>","null","","",""
"","","","","","image-keyboard-response","178","2.0.0","298340","p8zhmqtka09","2027","stimuli/26_100.jpg","f","response","f","true"
"","","","","","html-keyboard-response","179","2.0.0","298844","p8zhmqtka09","null","<p style=""border: 5px solid green;"">Correct!</p>","null","","",""
"","","","","","html-keyboard-response","180","2.0.0","299856","p8zhmqtka09","null","<div style=""font-size: 75px;"">+</div>","null","","",""
"","","","","","image-keyboard-response","181","2.0.0","300538","p8zhmqtka09","677","stimuli/8_0.jpg","f","response","f","true"
"","","","","","html-keyboard-response","182","2.0.0","301052","p8zhmqtka09","null","<p style=""border: 5px solid green;"">Correct!</p>","null","","",""
"","","","","","html-keyboard-response","183","2.0.0","302066","p8zhmqtka09","null","<div style=""font-size: 75px;"">+</div>","null","","",""
"","","","","","image-keyboard-response","184","2.0.0","303430","p8zhmqtka09","1358","stimuli/48_50.jpg","f","response","f","true"
"","","","","","html-keyboard-response","185","2.0.0","303942","p8zhmqtka09","null","<p style=""border: 5px solid green;"">Correct!</p>","null","","",""
"","","","","","html-keyboard-response","186","2.0.0","304943","p8zhmqtka09","null","<div style=""font-size: 75px;"">+</div>","null","","",""
"","","","","","image-keyboard-response","187","2.0.0","307106","p8zhmqtka09","2156","stimuli/35_100_R.jpg","j","response","j","true"
"","","","","","html-keyboard-response","188","2.0.0","307618","p8zhmqtka09","null","<p style=""border: 5px solid green;"">Correct!</p>","null","","",""
"","","","","","html-keyboard-response","189","2.0.0","308622","p8zhmqtka09","null","<div style=""font-size: 75px;"">+</div>","null","","",""
"","","","","","image-keyboard-response","190","2.0.0","310711","p8zhmqtka09","2079","stimuli/48_100.jpg","f","response","f","true"
"","","","","","html-keyboard-response","191","2.0.0","311218","p8zhmqtka09","null","<p style=""border: 5px solid green;"">Correct!</p>","null","","",""
"","","","","","html-keyboard-response","192","2.0.0","312234","p8zhmqtka09","null","<div style=""font-size: 75px;"">+</div>","null","","",""
"","","","","","image-keyboard-response","193","2.0.0","312978","p8zhmqtka09","738","stimuli/48_100_R.jpg","f","response","j","false"
"","","","","","html-keyboard-response","194","2.0.0","313484","p8zhmqtka09","null","<p style=""border: 5px solid red;"">Incorrect.</p>","null","","",""
"","","","","","html-keyboard-response","195","2.0.0","314489","p8zhmqtka09","null","<div style=""font-size: 75px;"">+</div>","null","","",""
"","","","","","image-keyboard-response","196","2.0.0","316502","p8zhmqtka09","2007","stimuli/16_50.jpg","f","response","f","true"
"","","","","","html-keyboard-response","197","2.0.0","317006","p8zhmqtka09","null","<p style=""border: 5px solid green;"">Correct!</p>","null","","",""
"","","","","","html-keyboard-response","198","2.0.0","318008","p8zhmqtka09","null","<div style=""font-size: 75px;"">+</div>","null","","",""
"","","","","","image-keyboard-response","199","2.0.0","321053","p8zhmqtka09","3039","stimuli/41_100_R.jpg","j","response","j","true"
"","","","","","html-keyboard-response","200","2.0.0","321566","p8zhmqtka09","null","<p style=""border: 5px solid green;"">Correct!</p>","null","","",""
"","","","","","html-keyboard-response","201","2.0.0","322570","p8zhmqtka09","null","<div style=""font-size: 75px;"">+</div>","null","","",""
"","","","","","image-keyboard-response","202","2.0.0","323385","p8zhmqtka09","808","stimuli/12_100_R.jpg","f","response","j","false"
"","","","","","html-keyboard-response","203","2.0.0","323901","p8zhmqtka09","null","<p style=""border: 5px solid red;"">Incorrect.</p>","null","","",""
"","","","","","html-keyboard-response","204","2.0.0","324909","p8zhmqtka09","null","<div style=""font-size: 75px;"">+</div>","null","","",""
"","","","","","image-keyboard-response","205","2.0.0","327415","p8zhmqtka09","2499","stimuli/32_50_R.jpg","j","response","j","true"
"","","","","","html-keyboard-response","206","2.0.0","327918","p8zhmqtka09","null","<p style=""border: 5px solid green;"">Correct!</p>","null","","",""
"","","","","","html-keyboard-response","207","2.0.0","328923","p8zhmqtka09","null","<div style=""font-size: 75px;"">+</div>","null","","",""
"","","","","","image-keyboard-response","208","2.0.0","333962","p8zhmqtka09","5030","stimuli/19_150_R.jpg","f","response","j","false"
"","","","","","html-keyboard-response","209","2.0.0","334463","p8zhmqtka09","null","<p style=""border: 5px solid red;"">Incorrect.</p>","null","","",""
"","","","","","html-keyboard-response","210","2.0.0","335469","p8zhmqtka09","null","<div style=""font-size: 75px;"">+</div>","null","","",""
"","","","","","image-keyboard-response","211","2.0.0","339161","p8zhmqtka09","3683","stimuli/40_100.jpg","j","response","f","false"
"","","","","","html-keyboard-response","212","2.0.0","339667","p8zhmqtka09","null","<p style=""border: 5px solid red;"">Incorrect.</p>","null","","",""
"","","","","","html-keyboard-response","213","2.0.0","340677","p8zhmqtka09","null","<div style=""font-size: 75px;"">+</div>","null","","",""
"","","","","","image-keyboard-response","214","2.0.0","345787","p8zhmqtka09","5103","stimuli/1_100_R.jpg","j","response","j","true"
"","","","","","html-keyboard-response","215","2.0.0","346302","p8zhmqtka09","null","<p style=""border: 5px solid green;"">Correct!</p>","null","","",""
"","","","","","html-keyboard-response","216","2.0.0","347312","p8zhmqtka09","null","<div style=""font-size: 75px;"">+</div>","null","","",""
"","","","","","image-keyboard-response","217","2.0.0","349077","p8zhmqtka09","1759","stimuli/9_50.jpg","f","response","f","true"
"","","","","","html-keyboard-response","218","2.0.0","349591","p8zhmqtka09","null","<p style=""border: 5px solid green;"">Correct!</p>","null","","",""
"","","","","","html-keyboard-response","219","2.0.0","350600","p8zhmqtka09","null","<div style=""font-size: 75px;"">+</div>","null","","",""
"","","","","","image-keyboard-response","220","2.0.0","353520","p8zhmqtka09","2914","stimuli/33_100_R.jpg","j","response","j","true"
"","","","","","html-keyboard-response","221","2.0.0","354031","p8zhmqtka09","null","<p style=""border: 5px solid green;"">Correct!</p>","null","","",""
"","","","","","html-keyboard-response","222","2.0.0","355041","p8zhmqtka09","null","<div style=""font-size: 75px;"">+</div>","null","","",""
"","","","","","image-keyboard-response","223","2.0.0","356080","p8zhmqtka09","1032","stimuli/12_0.jpg","f","response","f","true"
"","","","","","html-keyboard-response","224","2.0.0","356596","p8zhmqtka09","null","<p style=""border: 5px solid green;"">Correct!</p>","null","","",""
"","","","","","html-keyboard-response","225","2.0.0","357599","p8zhmqtka09","null","<div style=""font-size: 75px;"">+</div>","null","","",""
"","","","","","image-keyboard-response","226","2.0.0","363181","p8zhmqtka09","5576","stimuli/32_150_R.jpg","j","response","j","true"
"","","","","","html-keyboard-response","227","2.0.0","363683","p8zhmqtka09","null","<p style=""border: 5px solid green;"">Correct!</p>","null","","",""
"","","","","","html-keyboard-response","228","2.0.0","364688","p8zhmqtka09","null","<div style=""font-size: 75px;"">+</div>","null","","",""
"","","","","","image-keyboard-response","229","2.0.0","366913","p8zhmqtka09","2219","stimuli/35_50_R.jpg","f","response","j","false"
"","","","","","html-keyboard-response","230","2.0.0","367425","p8zhmqtka09","null","<p style=""border: 5px solid red;"">Incorrect.</p>","null","","",""
"","","","","","html-keyboard-response","231","2.0.0","368431","p8zhmqtka09","null","<div style=""font-size: 75px;"">+</div>","null","","",""
"","","","","","image-keyboard-response","232","2.0.0","371952","p8zhmqtka09","3515","stimuli/35_50.jpg","f","response","f","true"
"","","","","","html-keyboard-response","233","2.0.0","372458","p8zhmqtka09","null","<p style=""border: 5px solid green;"">Correct!</p>","null","","",""
"","","","","","html-keyboard-response","234","2.0.0","373459","p8zhmqtka09","null","<div style=""font-size: 75px;"">+</div>","null","","",""
"","","","","","image-keyboard-response","235","2.0.0","374882","p8zhmqtka09","1415","stimuli/31_0.jpg","f","response","f","true"
"","","","","","html-keyboard-response","236","2.0.0","375396","p8zhmqtka09","null","<p style=""border: 5px solid green;"">Correct!</p>","null","","",""
"","","","","","html-keyboard-response","237","2.0.0","376469","p8zhmqtka09","null","<div style=""font-size: 75px;"">+</div>","null","","",""
"","","","","","image-keyboard-response","238","2.0.0","377292","p8zhmqtka09","817","stimuli/13_50_R.jpg","j","response","j","true"
"","","","","","html-keyboard-response","239","2.0.0","377802","p8zhmqtka09","null","<p style=""border: 5px solid green;"">Correct!</p>","null","","",""
"","","","","","html-keyboard-response","240","2.0.0","378814","p8zhmqtka09","null","<div style=""font-size: 75px;"">+</div>","null","","",""
"","","","","","image-keyboard-response","241","2.0.0","381853","p8zhmqtka09","3032","stimuli/46_0_R.jpg","j","response","j","true"
"","","","","","html-keyboard-response","242","2.0.0","382366","p8zhmqtka09","null","<p style=""border: 5px solid green;"">Correct!</p>","null","","",""
"","","","","","html-keyboard-response","243","2.0.0","383381","p8zhmqtka09","null","<div style=""font-size: 75px;"">+</div>","null","","",""
"","","","","","image-keyboard-response","244","2.0.0","384262","p8zhmqtka09","874","stimuli/48_150_R.jpg","j","response","j","true"
"","","","","","html-keyboard-response","245","2.0.0","384769","p8zhmqtka09","null","<p style=""border: 5px solid green;"">Correct!</p>","null","","",""
"","","","","","html-keyboard-response","246","2.0.0","385784","p8zhmqtka09","null","<div style=""font-size: 75px;"">+</div>","null","","",""
"","","","","","image-keyboard-response","247","2.0.0","386467","p8zhmqtka09","677","stimuli/32_0.jpg","f","response","f","true"
"","","","","","html-keyboard-response","248","2.0.0","386969","p8zhmqtka09","null","<p style=""border: 5px solid green;"">Correct!</p>","null","","",""
"","","","","","html-keyboard-response","249","2.0.0","387972","p8zhmqtka09","null","<div style=""font-size: 75px;"">+</div>","null","","",""
"","","","","","image-keyboard-response","250","2.0.0","390756","p8zhmqtka09","2777","stimuli/29_100.jpg","f","response","f","true"
"","","","","","html-keyboard-response","251","2.0.0","391269","p8zhmqtka09","null","<p style=""border: 5px solid green;"">Correct!</p>","null","","",""
"","","","","","html-keyboard-response","252","2.0.0","392282","p8zhmqtka09","null","<div style=""font-size: 75px;"">+</div>","null","","",""
"","","","","","image-keyboard-response","253","2.0.0","393268","p8zhmqtka09","980","stimuli/9_50_R.jpg","j","response","j","true"
"","","","","","html-keyboard-response","254","2.0.0","393779","p8zhmqtka09","null","<p style=""border: 5px solid green;"">Correct!</p>","null","","",""
"","","","","","html-keyboard-response","255","2.0.0","394782","p8zhmqtka09","null","<div style=""font-size: 75px;"">+</div>","null","","",""
"","","","","","image-keyboard-response","256","2.0.0","395498","p8zhmqtka09","710","stimuli/28_0.jpg","f","response","f","true"
"","","","","","html-keyboard-response","257","2.0.0","396012","p8zhmqtka09","null","<p style=""border: 5px solid green;"">Correct!</p>","null","","",""
"","","","","","html-keyboard-response","258","2.0.0","397014","p8zhmqtka09","null","<div style=""font-size: 75px;"">+</div>","null","","",""
"","","","","","image-keyboard-response","259","2.0.0","397811","p8zhmqtka09","790","stimuli/31_150.jpg","j","response","f","false"
"","","","","","html-keyboard-response","260","2.0.0","398323","p8zhmqtka09","null","<p style=""border: 5px solid red;"">Incorrect.</p>","null","","",""
"","","","","","html-keyboard-response","261","2.0.0","399330","p8zhmqtka09","null","<div style=""font-size: 75px;"">+</div>","null","","",""
"","","","","","image-keyboard-response","262","2.0.0","400238","p8zhmqtka09","901","stimuli/24_150_R.jpg","j","response","j","true"
"","","","","","html-keyboard-response","263","2.0.0","400770","p8zhmqtka09","null","<p style=""border: 5px solid green;"">Correct!</p>","null","","",""
"","","","","","html-keyboard-response","264","2.0.0","401774","p8zhmqtka09","null","<div style=""font-size: 75px;"">+</div>","null","","",""
"","","","","","image-keyboard-response","265","2.0.0","413197","p8zhmqtka09","11417","stimuli/25_100_R.jpg","j","response","j","true"
"","","","","","html-keyboard-response","266","2.0.0","413710","p8zhmqtka09","null","<p style=""border: 5px solid green;"">Correct!</p>","null","","",""
"","","","","","html-keyboard-response","267","2.0.0","414714","p8zhmqtka09","null","<div style=""font-size: 75px;"">+</div>","null","","",""
"","","","","","image-keyboard-response","268","2.0.0","415757","p8zhmqtka09","1035","stimuli/16_150_R.jpg","j","response","j","true"
"","","","","","html-keyboard-response","269","2.0.0","416260","p8zhmqtka09","null","<p style=""border: 5px solid green;"">Correct!</p>","null","","",""
"","","","","","html-keyboard-response","270","2.0.0","417268","p8zhmqtka09","null","<div style=""font-size: 75px;"">+</div>","null","","",""
"","","","","","image-keyboard-response","271","2.0.0","420188","p8zhmqtka09","2913","stimuli/44_50.jpg","f","response","f","true"
"","","","","","html-keyboard-response","272","2.0.0","420698","p8zhmqtka09","null","<p style=""border: 5px solid green;"">Correct!</p>","null","","",""
"","","","","","html-keyboard-response","273","2.0.0","421704","p8zhmqtka09","null","<div style=""font-size: 75px;"">+</div>","null","","",""
"","","","","","image-keyboard-response","274","2.0.0","425454","p8zhmqtka09","3744","stimuli/14_50.jpg","f","response","f","true"
"","","","","","html-keyboard-response","275","2.0.0","425965","p8zhmqtka09","null","<p style=""border: 5px solid green;"">Correct!</p>","null","","",""
"","","","","","html-keyboard-response","276","2.0.0","426976","p8zhmqtka09","null","<div style=""font-size: 75px;"">+</div>","null","","",""
"","","","","","image-keyboard-response","277","2.0.0","427614","p8zhmqtka09","629","stimuli/18_0.jpg","f","response","f","true"
"","","","","","html-keyboard-response","278","2.0.0","428118","p8zhmqtka09","null","<p style=""border: 5px solid green;"">Correct!</p>","null","","",""
"","","","","","html-keyboard-response","279","2.0.0","429122","p8zhmqtka09","null","<div style=""font-size: 75px;"">+</div>","null","","",""
"","","","","","image-keyboard-response","280","2.0.0","430827","p8zhmqtka09","1696","stimuli/28_50.jpg","f","response","f","true"
"","","","","","html-keyboard-response","281","2.0.0","431333","p8zhmqtka09","null","<p style=""border: 5px solid green;"">Correct!</p>","null","","",""
"","","","","","html-keyboard-response","282","2.0.0","432339","p8zhmqtka09","null","<div style=""font-size: 75px;"">+</div>","null","","",""
"","","","","","image-keyboard-response","283","2.0.0","435958","p8zhmqtka09","3611","stimuli/48_150.jpg","j","response","f","false"
"","","","","","html-keyboard-response","284","2.0.0","436460","p8zhmqtka09","null","<p style=""border: 5px solid red;"">Incorrect.</p>","null","","",""
"","","","","","html-keyboard-response","285","2.0.0","437462","p8zhmqtka09","null","<div style=""font-size: 75px;"">+</div>","null","","",""
"","","","","","image-keyboard-response","286","2.0.0","438310","p8zhmqtka09","842","stimuli/4_150.jpg","f","response","f","true"
"","","","","","html-keyboard-response","287","2.0.0","438825","p8zhmqtka09","null","<p style=""border: 5px solid green;"">Correct!</p>","null","","",""
"","","","","","html-keyboard-response","288","2.0.0","439830","p8zhmqtka09","null","<div style=""font-size: 75px;"">+</div>","null","","",""
"","","","","","image-keyboard-response","289","2.0.0","440749","p8zhmqtka09","913","stimuli/31_150_R.jpg","j","response","j","true"
"","","","","","html-keyboard-response","290","2.0.0","441255","p8zhmqtka09","null","<p style=""border: 5px solid green;"">Correct!</p>","null","","",""
"","","","","","html-keyboard-response","291","2.0.0","442261","p8zhmqtka09","null","<div style=""font-size: 75px;"">+</div>","null","","",""
"","","","","","image-keyboard-response","292","2.0.0","443328","p8zhmqtka09","1061","stimuli/46_150_R.jpg","f","response","j","false"
"","","","","","html-keyboard-response","293","2.0.0","443832","p8zhmqtka09","null","<p style=""border: 5px solid red;"">Incorrect.</p>","null","","",""
"","","","","","html-keyboard-response","294","2.0.0","444741","p8zhmqtka09","909","<p>Thank you for participating!</p><p>Please press space to answer our survey.</p>"," ","","",""
"","","","","","survey-html-form","295","null","561870","p8zhmqtka09","117126","","{""response_1"":""Dim and vague; flat"",""response_2"":""Moderately clear and lively"",""response_3"":""No image at all, you only “know” that you are thinking of the object"",""response_4"":""Dim and vague; flat"",""response_5"":""Dim and vague; flat"",""response_6"":""Moderately clear and lively"",""response_7"":""Moderately clear and lively"",""response_8"":""Moderately clear and lively"",""response_9"":""Dim and vague; flat"",""response_10"":""Moderately clear and lively"",""response_11"":""Moderately clear and lively"",""response_12"":""Dim and vague; flat"",""response_13"":""Dim and vague; flat"",""response_14"":""Dim and vague; flat"",""response_15"":""Moderately clear and lively"",""response_16"":""Dim and vague; flat""}","","",""
"","","","","","survey-html-form","296","null","607223","p8zhmqtka09","45348","","{""age"":""23"",""gender"":""male"",""education"":""high-school"",""handedness"":""right"",""vision"":""corrected"",""technical_difficulties"":""no"",""knowledge_check"":""how long it takes you to envision the image based on how different they are facing degree-wise.""}","","",""
