"success","timeout","failed_images","failed_audio","failed_video","trial_type","trial_index","plugin_version","time_elapsed","random_id","rt","stimulus","response","task","correct_response","correct"
"true","false","[]","[]","[]","preload","0","2.0.0","3281","pbtj1l4nxbp","","","","","",""
"true","","","","","fullscreen","1","2.0.0","7689","pbtj1l4nxbp","3392","","","","",""
"","","","","","html-keyboard-response","2","2.0.0","10099","pbtj1l4nxbp","2407","Welcome to the experiment. Press any key to begin."," ","","",""
"","","","","","survey-text","3","2.0.0","14298","pbtj1l4nxbp","4191","","{""participant_id"":""hedgehog""}","","",""
"","","","","","html-keyboard-response","4","2.0.0","32489","pbtj1l4nxbp","18189","
        <p>Welcome to the experiment.</p>
        <p>In this task, you will see pairs of images.</p>
        <p>Your job is to determine whether the image on the right is a rotated version of the image on the left.</p>
        <p>Press the <strong>F</strong> key if the images are the same.</p>
        <p>Press the <strong>J</strong> key if the images are different.</p>
        <p>Press any key to begin.</p>
    "," ","","",""
"","","","","","html-keyboard-response","5","2.0.0","33498","pbtj1l4nxbp","null","<div style=""font-size: 75px;"">+</div>","null","","",""
"","","","","","image-keyboard-response","6","2.0.0","37831","pbtj1l4nxbp","4326","stimuli/7_50.jpg","f","response","f","true"
"","","","","","html-keyboard-response","7","2.0.0","38340","pbtj1l4nxbp","null","<p style=""border: 5px solid green;"">Correct!</p>","null","","",""
"","","","","","html-keyboard-response","8","2.0.0","39357","pbtj1l4nxbp","null","<div style=""font-size: 75px;"">+</div>","null","","",""
"","","","","","image-keyboard-response","9","2.0.0","41094","pbtj1l4nxbp","1734","stimuli/29_0_R.jpg","j","response","j","true"
"","","","","","html-keyboard-response","10","2.0.0","41608","pbtj1l4nxbp","null","<p style=""border: 5px solid green;"">Correct!</p>","null","","",""
"","","","","","html-keyboard-response","11","2.0.0","42621","pbtj1l4nxbp","null","<div style=""font-size: 75px;"">+</div>","null","","",""
"","","","","","image-keyboard-response","12","2.0.0","45173","pbtj1l4nxbp","2550","stimuli/44_150.jpg","f","response","f","true"
"","","","","","html-keyboard-response","13","2.0.0","45685","pbtj1l4nxbp","null","<p style=""border: 5px solid green;"">Correct!</p>","null","","",""
"","","","","","html-keyboard-response","14","2.0.0","46701","pbtj1l4nxbp","null","<div style=""font-size: 75px;"">+</div>","null","","",""
"","","","","","image-keyboard-response","15","2.0.0","50806","pbtj1l4nxbp","4103","stimuli/26_100_R.jpg","j","response","j","true"
"","","","","","html-keyboard-response","16","2.0.0","51320","pbtj1l4nxbp","null","<p style=""border: 5px solid green;"">Correct!</p>","null","","",""
"","","","","","html-keyboard-response","17","2.0.0","52333","pbtj1l4nxbp","null","<div style=""font-size: 75px;"">+</div>","null","","",""
"","","","","","image-keyboard-response","18","2.0.0","54288","pbtj1l4nxbp","1943","stimuli/11_50.jpg","f","response","f","true"
"","","","","","html-keyboard-response","19","2.0.0","54800","pbtj1l4nxbp","null","<p style=""border: 5px solid green;"">Correct!</p>","null","","",""
"","","","","","html-keyboard-response","20","2.0.0","55803","pbtj1l4nxbp","null","<div style=""font-size: 75px;"">+</div>","null","","",""
"","","","","","image-keyboard-response","21","2.0.0","57477","pbtj1l4nxbp","1671","stimuli/29_0.jpg","f","response","f","true"
"","","","","","html-keyboard-response","22","2.0.0","57988","pbtj1l4nxbp","null","<p style=""border: 5px solid green;"">Correct!</p>","null","","",""
"","","","","","html-keyboard-response","23","2.0.0","59004","pbtj1l4nxbp","null","<div style=""font-size: 75px;"">+</div>","null","","",""
"","","","","","image-keyboard-response","24","2.0.0","61443","pbtj1l4nxbp","2438","stimuli/40_150_R.jpg","f","response","j","false"
"","","","","","html-keyboard-response","25","2.0.0","61958","pbtj1l4nxbp","null","<p style=""border: 5px solid red;"">Incorrect.</p>","null","","",""
"","","","","","html-keyboard-response","26","2.0.0","62960","pbtj1l4nxbp","null","<div style=""font-size: 75px;"">+</div>","null","","",""
"","","","","","image-keyboard-response","27","2.0.0","65655","pbtj1l4nxbp","2692","stimuli/45_100.jpg","f","response","f","true"
"","","","","","html-keyboard-response","28","2.0.0","66171","pbtj1l4nxbp","null","<p style=""border: 5px solid green;"">Correct!</p>","null","","",""
"","","","","","html-keyboard-response","29","2.0.0","67185","pbtj1l4nxbp","null","<div style=""font-size: 75px;"">+</div>","null","","",""
"","","","","","image-keyboard-response","30","2.0.0","72333","pbtj1l4nxbp","5145","stimuli/16_150.jpg","f","response","f","true"
"","","","","","html-keyboard-response","31","2.0.0","72846","pbtj1l4nxbp","null","<p style=""border: 5px solid green;"">Correct!</p>","null","","",""
"","","","","","html-keyboard-response","32","2.0.0","73862","pbtj1l4nxbp","null","<div style=""font-size: 75px;"">+</div>","null","","",""
"","","","","","image-keyboard-response","33","2.0.0","79626","pbtj1l4nxbp","5761","stimuli/46_0_R.jpg","j","response","j","true"
"","","","","","html-keyboard-response","34","2.0.0","80141","pbtj1l4nxbp","null","<p style=""border: 5px solid green;"">Correct!</p>","null","","",""
"","","","","","html-keyboard-response","35","2.0.0","81157","pbtj1l4nxbp","null","<div style=""font-size: 75px;"">+</div>","null","","",""
"","","","","","image-keyboard-response","36","2.0.0","83125","pbtj1l4nxbp","1966","stimuli/47_0_R.jpg","j","response","j","true"
"","","","","","html-keyboard-response","37","2.0.0","83638","pbtj1l4nxbp","null","<p style=""border: 5px solid green;"">Correct!</p>","null","","",""
"","","","","","html-keyboard-response","38","2.0.0","84654","pbtj1l4nxbp","null","<div style=""font-size: 75px;"">+</div>","null","","",""
"","","","","","image-keyboard-response","39","2.0.0","86694","pbtj1l4nxbp","2038","stimuli/42_150.jpg","f","response","f","true"
"","","","","","html-keyboard-response","40","2.0.0","87206","pbtj1l4nxbp","null","<p style=""border: 5px solid green;"">Correct!</p>","null","","",""
"","","","","","html-keyboard-response","41","2.0.0","88222","pbtj1l4nxbp","null","<div style=""font-size: 75px;"">+</div>","null","","",""
"","","","","","image-keyboard-response","42","2.0.0","91631","pbtj1l4nxbp","3408","stimuli/33_100.jpg","f","response","f","true"
"","","","","","html-keyboard-response","43","2.0.0","92143","pbtj1l4nxbp","null","<p style=""border: 5px solid green;"">Correct!</p>","null","","",""
"","","","","","html-keyboard-response","44","2.0.0","93158","pbtj1l4nxbp","null","<div style=""font-size: 75px;"">+</div>","null","","",""
"","","","","","image-keyboard-response","45","2.0.0","97531","pbtj1l4nxbp","4372","stimuli/34_100_R.jpg","j","response","j","true"
"","","","","","html-keyboard-response","46","2.0.0","98039","pbtj1l4nxbp","null","<p style=""border: 5px solid green;"">Correct!</p>","null","","",""
"","","","","","html-keyboard-response","47","2.0.0","99056","pbtj1l4nxbp","null","<div style=""font-size: 75px;"">+</div>","null","","",""
"","","","","","image-keyboard-response","48","2.0.0","103394","pbtj1l4nxbp","4336","stimuli/26_50_R.jpg","j","response","j","true"
"","","","","","html-keyboard-response","49","2.0.0","103908","pbtj1l4nxbp","null","<p style=""border: 5px solid green;"">Correct!</p>","null","","",""
"","","","","","html-keyboard-response","50","2.0.0","104923","pbtj1l4nxbp","null","<div style=""font-size: 75px;"">+</div>","null","","",""
"","","","","","image-keyboard-response","51","2.0.0","111248","pbtj1l4nxbp","6312","stimuli/36_150_R.jpg","j","response","j","true"
"","","","","","html-keyboard-response","52","2.0.0","111755","pbtj1l4nxbp","null","<p style=""border: 5px solid green;"">Correct!</p>","null","","",""
"","","","","","html-keyboard-response","53","2.0.0","112758","pbtj1l4nxbp","null","<div style=""font-size: 75px;"">+</div>","null","","",""
"","","","","","image-keyboard-response","54","2.0.0","115685","pbtj1l4nxbp","2924","stimuli/9_150_R.jpg","j","response","j","true"
"","","","","","html-keyboard-response","55","2.0.0","116187","pbtj1l4nxbp","null","<p style=""border: 5px solid green;"">Correct!</p>","null","","",""
"","","","","","html-keyboard-response","56","2.0.0","117189","pbtj1l4nxbp","null","<div style=""font-size: 75px;"">+</div>","null","","",""
"","","","","","image-keyboard-response","57","2.0.0","120057","pbtj1l4nxbp","2866","stimuli/44_100.jpg","f","response","f","true"
"","","","","","html-keyboard-response","58","2.0.0","120569","pbtj1l4nxbp","null","<p style=""border: 5px solid green;"">Correct!</p>","null","","",""
"","","","","","html-keyboard-response","59","2.0.0","121573","pbtj1l4nxbp","null","<div style=""font-size: 75px;"">+</div>","null","","",""
"","","","","","image-keyboard-response","60","2.0.0","124433","pbtj1l4nxbp","2859","stimuli/38_0_R.jpg","j","response","j","true"
"","","","","","html-keyboard-response","61","2.0.0","124943","pbtj1l4nxbp","null","<p style=""border: 5px solid green;"">Correct!</p>","null","","",""
"","","","","","html-keyboard-response","62","2.0.0","125959","pbtj1l4nxbp","null","<div style=""font-size: 75px;"">+</div>","null","","",""
"","","","","","image-keyboard-response","63","2.0.0","128553","pbtj1l4nxbp","2591","stimuli/4_50.jpg","f","response","f","true"
"","","","","","html-keyboard-response","64","2.0.0","129064","pbtj1l4nxbp","null","<p style=""border: 5px solid green;"">Correct!</p>","null","","",""
"","","","","","html-keyboard-response","65","2.0.0","130079","pbtj1l4nxbp","null","<div style=""font-size: 75px;"">+</div>","null","","",""
"","","","","","image-keyboard-response","66","2.0.0","133851","pbtj1l4nxbp","3770","stimuli/27_50_R.jpg","j","response","j","true"
"","","","","","html-keyboard-response","67","2.0.0","134368","pbtj1l4nxbp","null","<p style=""border: 5px solid green;"">Correct!</p>","null","","",""
"","","","","","html-keyboard-response","68","2.0.0","135382","pbtj1l4nxbp","null","<div style=""font-size: 75px;"">+</div>","null","","",""
"","","","","","image-keyboard-response","69","2.0.0","137890","pbtj1l4nxbp","2506","stimuli/37_50_R.jpg","j","response","j","true"
"","","","","","html-keyboard-response","70","2.0.0","138400","pbtj1l4nxbp","null","<p style=""border: 5px solid green;"">Correct!</p>","null","","",""
"","","","","","html-keyboard-response","71","2.0.0","139402","pbtj1l4nxbp","null","<div style=""font-size: 75px;"">+</div>","null","","",""
"","","","","","image-keyboard-response","72","2.0.0","141452","pbtj1l4nxbp","2047","stimuli/4_50_R.jpg","j","response","j","true"
"","","","","","html-keyboard-response","73","2.0.0","141962","pbtj1l4nxbp","null","<p style=""border: 5px solid green;"">Correct!</p>","null","","",""
"","","","","","html-keyboard-response","74","2.0.0","142978","pbtj1l4nxbp","null","<div style=""font-size: 75px;"">+</div>","null","","",""
"","","","","","image-keyboard-response","75","2.0.0","147227","pbtj1l4nxbp","4247","stimuli/37_150.jpg","f","response","f","true"
"","","","","","html-keyboard-response","76","2.0.0","147738","pbtj1l4nxbp","null","<p style=""border: 5px solid green;"">Correct!</p>","null","","",""
"","","","","","html-keyboard-response","77","2.0.0","148753","pbtj1l4nxbp","null","<div style=""font-size: 75px;"">+</div>","null","","",""
"","","","","","image-keyboard-response","78","2.0.0","151947","pbtj1l4nxbp","3191","stimuli/5_0_R.jpg","j","response","j","true"
"","","","","","html-keyboard-response","79","2.0.0","152458","pbtj1l4nxbp","null","<p style=""border: 5px solid green;"">Correct!</p>","null","","",""
"","","","","","html-keyboard-response","80","2.0.0","153473","pbtj1l4nxbp","null","<div style=""font-size: 75px;"">+</div>","null","","",""
"","","","","","image-keyboard-response","81","2.0.0","158874","pbtj1l4nxbp","5399","stimuli/13_100_R.jpg","j","response","j","true"
"","","","","","html-keyboard-response","82","2.0.0","159387","pbtj1l4nxbp","null","<p style=""border: 5px solid green;"">Correct!</p>","null","","",""
"","","","","","html-keyboard-response","83","2.0.0","160403","pbtj1l4nxbp","null","<div style=""font-size: 75px;"">+</div>","null","","",""
"","","","","","image-keyboard-response","84","2.0.0","162467","pbtj1l4nxbp","2061","stimuli/9_150.jpg","f","response","f","true"
"","","","","","html-keyboard-response","85","2.0.0","162983","pbtj1l4nxbp","null","<p style=""border: 5px solid green;"">Correct!</p>","null","","",""
"","","","","","html-keyboard-response","86","2.0.0","163998","pbtj1l4nxbp","null","<div style=""font-size: 75px;"">+</div>","null","","",""
"","","","","","image-keyboard-response","87","2.0.0","166467","pbtj1l4nxbp","2467","stimuli/16_50_R.jpg","j","response","j","true"
"","","","","","html-keyboard-response","88","2.0.0","166980","pbtj1l4nxbp","null","<p style=""border: 5px solid green;"">Correct!</p>","null","","",""
"","","","","","html-keyboard-response","89","2.0.0","167997","pbtj1l4nxbp","null","<div style=""font-size: 75px;"">+</div>","null","","",""
"","","","","","image-keyboard-response","90","2.0.0","169409","pbtj1l4nxbp","1410","stimuli/22_0_R.jpg","j","response","j","true"
"","","","","","html-keyboard-response","91","2.0.0","169925","pbtj1l4nxbp","null","<p style=""border: 5px solid green;"">Correct!</p>","null","","",""
"","","","","","html-keyboard-response","92","2.0.0","170928","pbtj1l4nxbp","null","<div style=""font-size: 75px;"">+</div>","null","","",""
"","","","","","image-keyboard-response","93","2.0.0","173217","pbtj1l4nxbp","2287","stimuli/45_50.jpg","f","response","f","true"
"","","","","","html-keyboard-response","94","2.0.0","173727","pbtj1l4nxbp","null","<p style=""border: 5px solid green;"">Correct!</p>","null","","",""
"","","","","","html-keyboard-response","95","2.0.0","174729","pbtj1l4nxbp","null","<div style=""font-size: 75px;"">+</div>","null","","",""
"","","","","","image-keyboard-response","96","2.0.0","178112","pbtj1l4nxbp","3381","stimuli/30_100.jpg","f","response","f","true"
"","","","","","html-keyboard-response","97","2.0.0","178629","pbtj1l4nxbp","null","<p style=""border: 5px solid green;"">Correct!</p>","null","","",""
"","","","","","html-keyboard-response","98","2.0.0","179635","pbtj1l4nxbp","null","<div style=""font-size: 75px;"">+</div>","null","","",""
"","","","","","image-keyboard-response","99","2.0.0","182478","pbtj1l4nxbp","2841","stimuli/12_100_R.jpg","j","response","j","true"
"","","","","","html-keyboard-response","100","2.0.0","182987","pbtj1l4nxbp","null","<p style=""border: 5px solid green;"">Correct!</p>","null","","",""
"","","","","","html-keyboard-response","101","2.0.0","184003","pbtj1l4nxbp","null","<div style=""font-size: 75px;"">+</div>","null","","",""
"","","","","","image-keyboard-response","102","2.0.0","188476","pbtj1l4nxbp","4471","stimuli/25_50_R.jpg","j","response","j","true"
"","","","","","html-keyboard-response","103","2.0.0","188987","pbtj1l4nxbp","null","<p style=""border: 5px solid green;"">Correct!</p>","null","","",""
"","","","","","html-keyboard-response","104","2.0.0","189999","pbtj1l4nxbp","null","<div style=""font-size: 75px;"">+</div>","null","","",""
"","","","","","image-keyboard-response","105","2.0.0","190895","pbtj1l4nxbp","894","stimuli/29_50_R.jpg","j","response","j","true"
"","","","","","html-keyboard-response","106","2.0.0","191408","pbtj1l4nxbp","null","<p style=""border: 5px solid green;"">Correct!</p>","null","","",""
"","","","","","html-keyboard-response","107","2.0.0","192419","pbtj1l4nxbp","null","<div style=""font-size: 75px;"">+</div>","null","","",""
"","","","","","image-keyboard-response","108","2.0.0","197320","pbtj1l4nxbp","4899","stimuli/8_150.jpg","f","response","f","true"
"","","","","","html-keyboard-response","109","2.0.0","197831","pbtj1l4nxbp","null","<p style=""border: 5px solid green;"">Correct!</p>","null","","",""
"","","","","","html-keyboard-response","110","2.0.0","198844","pbtj1l4nxbp","null","<div style=""font-size: 75px;"">+</div>","null","","",""
"","","","","","image-keyboard-response","111","2.0.0","203300","pbtj1l4nxbp","4454","stimuli/31_100.jpg","f","response","f","true"
"","","","","","html-keyboard-response","112","2.0.0","203812","pbtj1l4nxbp","null","<p style=""border: 5px solid green;"">Correct!</p>","null","","",""
"","","","","","html-keyboard-response","113","2.0.0","204824","pbtj1l4nxbp","null","<div style=""font-size: 75px;"">+</div>","null","","",""
"","","","","","image-keyboard-response","114","2.0.0","207433","pbtj1l4nxbp","2607","stimuli/25_150_R.jpg","j","response","j","true"
"","","","","","html-keyboard-response","115","2.0.0","207946","pbtj1l4nxbp","null","<p style=""border: 5px solid green;"">Correct!</p>","null","","",""
"","","","","","html-keyboard-response","116","2.0.0","208960","pbtj1l4nxbp","null","<div style=""font-size: 75px;"">+</div>","null","","",""
"","","","","","image-keyboard-response","117","2.0.0","211861","pbtj1l4nxbp","2899","stimuli/25_100.jpg","f","response","f","true"
"","","","","","html-keyboard-response","118","2.0.0","212371","pbtj1l4nxbp","null","<p style=""border: 5px solid green;"">Correct!</p>","null","","",""
"","","","","","html-keyboard-response","119","2.0.0","213375","pbtj1l4nxbp","null","<div style=""font-size: 75px;"">+</div>","null","","",""
"","","","","","image-keyboard-response","120","2.0.0","216639","pbtj1l4nxbp","3261","stimuli/12_150_R.jpg","j","response","j","true"
"","","","","","html-keyboard-response","121","2.0.0","217145","pbtj1l4nxbp","null","<p style=""border: 5px solid green;"">Correct!</p>","null","","",""
"","","","","","html-keyboard-response","122","2.0.0","218155","pbtj1l4nxbp","null","<div style=""font-size: 75px;"">+</div>","null","","",""
"","","","","","image-keyboard-response","123","2.0.0","221906","pbtj1l4nxbp","3749","stimuli/15_150.jpg","f","response","f","true"
"","","","","","html-keyboard-response","124","2.0.0","222417","pbtj1l4nxbp","null","<p style=""border: 5px solid green;"">Correct!</p>","null","","",""
"","","","","","html-keyboard-response","125","2.0.0","223432","pbtj1l4nxbp","null","<div style=""font-size: 75px;"">+</div>","null","","",""
"","","","","","image-keyboard-response","126","2.0.0","229476","pbtj1l4nxbp","6041","stimuli/32_150_R.jpg","j","response","j","true"
"","","","","","html-keyboard-response","127","2.0.0","229986","pbtj1l4nxbp","null","<p style=""border: 5px solid green;"">Correct!</p>","null","","",""
"","","","","","html-keyboard-response","128","2.0.0","231001","pbtj1l4nxbp","null","<div style=""font-size: 75px;"">+</div>","null","","",""
"","","","","","image-keyboard-response","129","2.0.0","234315","pbtj1l4nxbp","3312","stimuli/47_100.jpg","f","response","f","true"
"","","","","","html-keyboard-response","130","2.0.0","234827","pbtj1l4nxbp","null","<p style=""border: 5px solid green;"">Correct!</p>","null","","",""
"","","","","","html-keyboard-response","131","2.0.0","235843","pbtj1l4nxbp","null","<div style=""font-size: 75px;"">+</div>","null","","",""
"","","","","","image-keyboard-response","132","2.0.0","238033","pbtj1l4nxbp","2188","stimuli/27_150.jpg","f","response","f","true"
"","","","","","html-keyboard-response","133","2.0.0","238546","pbtj1l4nxbp","null","<p style=""border: 5px solid green;"">Correct!</p>","null","","",""
"","","","","","html-keyboard-response","134","2.0.0","239550","pbtj1l4nxbp","null","<div style=""font-size: 75px;"">+</div>","null","","",""
"","","","","","image-keyboard-response","135","2.0.0","242130","pbtj1l4nxbp","2578","stimuli/17_0.jpg","f","response","f","true"
"","","","","","html-keyboard-response","136","2.0.0","242641","pbtj1l4nxbp","null","<p style=""border: 5px solid green;"">Correct!</p>","null","","",""
"","","","","","html-keyboard-response","137","2.0.0","243647","pbtj1l4nxbp","null","<div style=""font-size: 75px;"">+</div>","null","","",""
"","","","","","image-keyboard-response","138","2.0.0","244478","pbtj1l4nxbp","828","stimuli/48_0.jpg","f","response","f","true"
"","","","","","html-keyboard-response","139","2.0.0","244992","pbtj1l4nxbp","null","<p style=""border: 5px solid green;"">Correct!</p>","null","","",""
"","","","","","html-keyboard-response","140","2.0.0","245997","pbtj1l4nxbp","null","<div style=""font-size: 75px;"">+</div>","null","","",""
"","","","","","image-keyboard-response","141","2.0.0","247690","pbtj1l4nxbp","1690","stimuli/33_150_R.jpg","f","response","j","false"
"","","","","","html-keyboard-response","142","2.0.0","248203","pbtj1l4nxbp","null","<p style=""border: 5px solid red;"">Incorrect.</p>","null","","",""
"","","","","","html-keyboard-response","143","2.0.0","249219","pbtj1l4nxbp","null","<div style=""font-size: 75px;"">+</div>","null","","",""
"","","","","","image-keyboard-response","144","2.0.0","252017","pbtj1l4nxbp","2795","stimuli/7_100.jpg","f","response","f","true"
"","","","","","html-keyboard-response","145","2.0.0","252527","pbtj1l4nxbp","null","<p style=""border: 5px solid green;"">Correct!</p>","null","","",""
"","","","","","html-keyboard-response","146","2.0.0","253529","pbtj1l4nxbp","null","<div style=""font-size: 75px;"">+</div>","null","","",""
"","","","","","image-keyboard-response","147","2.0.0","258223","pbtj1l4nxbp","4691","stimuli/39_50.jpg","f","response","f","true"
"","","","","","html-keyboard-response","148","2.0.0","258733","pbtj1l4nxbp","null","<p style=""border: 5px solid green;"">Correct!</p>","null","","",""
"","","","","","html-keyboard-response","149","2.0.0","288738","pbtj1l4nxbp","null","<p> Take a break! Experiment continues in 30 seconds . </p>","null","","",""
"","","","","","html-keyboard-response","150","2.0.0","289749","pbtj1l4nxbp","null","<div style=""font-size: 75px;"">+</div>","null","","",""
"","","","","","image-keyboard-response","151","2.0.0","292360","pbtj1l4nxbp","2609","stimuli/18_150_R.jpg","f","response","j","false"
"","","","","","html-keyboard-response","152","2.0.0","292872","pbtj1l4nxbp","null","<p style=""border: 5px solid red;"">Incorrect.</p>","null","","",""
"","","","","","html-keyboard-response","153","2.0.0","293886","pbtj1l4nxbp","null","<div style=""font-size: 75px;"">+</div>","null","","",""
"","","","","","image-keyboard-response","154","2.0.0","296740","pbtj1l4nxbp","2844","stimuli/41_100_R.jpg","f","response","j","false"
"","","","","","html-keyboard-response","155","2.0.0","297250","pbtj1l4nxbp","null","<p style=""border: 5px solid red;"">Incorrect.</p>","null","","",""
"","","","","","html-keyboard-response","156","2.0.0","298264","pbtj1l4nxbp","null","<div style=""font-size: 75px;"">+</div>","null","","",""
"","","","","","image-keyboard-response","157","2.0.0","300236","pbtj1l4nxbp","1970","stimuli/39_100_R.jpg","j","response","j","true"
"","","","","","html-keyboard-response","158","2.0.0","300747","pbtj1l4nxbp","null","<p style=""border: 5px solid green;"">Correct!</p>","null","","",""
"","","","","","html-keyboard-response","159","2.0.0","301763","pbtj1l4nxbp","null","<div style=""font-size: 75px;"">+</div>","null","","",""
"","","","","","image-keyboard-response","160","2.0.0","303384","pbtj1l4nxbp","1619","stimuli/31_0_R.jpg","j","response","j","true"
"","","","","","html-keyboard-response","161","2.0.0","303902","pbtj1l4nxbp","null","<p style=""border: 5px solid green;"">Correct!</p>","null","","",""
"","","","","","html-keyboard-response","162","2.0.0","304912","pbtj1l4nxbp","null","<div style=""font-size: 75px;"">+</div>","null","","",""
"","","","","","image-keyboard-response","163","2.0.0","306642","pbtj1l4nxbp","1728","stimuli/20_50_R.jpg","j","response","j","true"
"","","","","","html-keyboard-response","164","2.0.0","307156","pbtj1l4nxbp","null","<p style=""border: 5px solid green;"">Correct!</p>","null","","",""
"","","","","","html-keyboard-response","165","2.0.0","308172","pbtj1l4nxbp","null","<div style=""font-size: 75px;"">+</div>","null","","",""
"","","","","","image-keyboard-response","166","2.0.0","311004","pbtj1l4nxbp","2830","stimuli/48_100_R.jpg","j","response","j","true"
"","","","","","html-keyboard-response","167","2.0.0","311517","pbtj1l4nxbp","null","<p style=""border: 5px solid green;"">Correct!</p>","null","","",""
"","","","","","html-keyboard-response","168","2.0.0","312522","pbtj1l4nxbp","null","<div style=""font-size: 75px;"">+</div>","null","","",""
"","","","","","image-keyboard-response","169","2.0.0","314630","pbtj1l4nxbp","2106","stimuli/47_100_R.jpg","j","response","j","true"
"","","","","","html-keyboard-response","170","2.0.0","315140","pbtj1l4nxbp","null","<p style=""border: 5px solid green;"">Correct!</p>","null","","",""
"","","","","","html-keyboard-response","171","2.0.0","316144","pbtj1l4nxbp","null","<div style=""font-size: 75px;"">+</div>","null","","",""
"","","","","","image-keyboard-response","172","2.0.0","317865","pbtj1l4nxbp","1720","stimuli/19_50.jpg","f","response","f","true"
"","","","","","html-keyboard-response","173","2.0.0","318376","pbtj1l4nxbp","null","<p style=""border: 5px solid green;"">Correct!</p>","null","","",""
"","","","","","html-keyboard-response","174","2.0.0","319377","pbtj1l4nxbp","null","<div style=""font-size: 75px;"">+</div>","null","","",""
"","","","","","image-keyboard-response","175","2.0.0","321891","pbtj1l4nxbp","2511","stimuli/48_50_R.jpg","j","response","j","true"
"","","","","","html-keyboard-response","176","2.0.0","322399","pbtj1l4nxbp","null","<p style=""border: 5px solid green;"">Correct!</p>","null","","",""
"","","","","","html-keyboard-response","177","2.0.0","323402","pbtj1l4nxbp","null","<div style=""font-size: 75px;"">+</div>","null","","",""
"","","","","","image-keyboard-response","178","2.0.0","325418","pbtj1l4nxbp","2014","stimuli/21_100_R.jpg","j","response","j","true"
"","","","","","html-keyboard-response","179","2.0.0","325929","pbtj1l4nxbp","null","<p style=""border: 5px solid green;"">Correct!</p>","null","","",""
"","","","","","html-keyboard-response","180","2.0.0","326944","pbtj1l4nxbp","null","<div style=""font-size: 75px;"">+</div>","null","","",""
"","","","","","image-keyboard-response","181","2.0.0","329450","pbtj1l4nxbp","2504","stimuli/27_100.jpg","f","response","f","true"
"","","","","","html-keyboard-response","182","2.0.0","329961","pbtj1l4nxbp","null","<p style=""border: 5px solid green;"">Correct!</p>","null","","",""
"","","","","","html-keyboard-response","183","2.0.0","330976","pbtj1l4nxbp","null","<div style=""font-size: 75px;"">+</div>","null","","",""
"","","","","","image-keyboard-response","184","2.0.0","332810","pbtj1l4nxbp","1832","stimuli/31_50.jpg","f","response","f","true"
"","","","","","html-keyboard-response","185","2.0.0","333321","pbtj1l4nxbp","null","<p style=""border: 5px solid green;"">Correct!</p>","null","","",""
"","","","","","html-keyboard-response","186","2.0.0","334324","pbtj1l4nxbp","null","<div style=""font-size: 75px;"">+</div>","null","","",""
"","","","","","image-keyboard-response","187","2.0.0","335869","pbtj1l4nxbp","1543","stimuli/5_150_R.jpg","j","response","j","true"
"","","","","","html-keyboard-response","188","2.0.0","336386","pbtj1l4nxbp","null","<p style=""border: 5px solid green;"">Correct!</p>","null","","",""
"","","","","","html-keyboard-response","189","2.0.0","337402","pbtj1l4nxbp","null","<div style=""font-size: 75px;"">+</div>","null","","",""
"","","","","","image-keyboard-response","190","2.0.0","339882","pbtj1l4nxbp","2478","stimuli/11_100_R.jpg","j","response","j","true"
"","","","","","html-keyboard-response","191","2.0.0","340391","pbtj1l4nxbp","null","<p style=""border: 5px solid green;"">Correct!</p>","null","","",""
"","","","","","html-keyboard-response","192","2.0.0","341406","pbtj1l4nxbp","null","<div style=""font-size: 75px;"">+</div>","null","","",""
"","","","","","image-keyboard-response","193","2.0.0","343285","pbtj1l4nxbp","1877","stimuli/41_50.jpg","f","response","f","true"
"","","","","","html-keyboard-response","194","2.0.0","343796","pbtj1l4nxbp","null","<p style=""border: 5px solid green;"">Correct!</p>","null","","",""
"","","","","","html-keyboard-response","195","2.0.0","344811","pbtj1l4nxbp","null","<div style=""font-size: 75px;"">+</div>","null","","",""
"","","","","","image-keyboard-response","196","2.0.0","346049","pbtj1l4nxbp","1236","stimuli/16_0.jpg","f","response","f","true"
"","","","","","html-keyboard-response","197","2.0.0","346564","pbtj1l4nxbp","null","<p style=""border: 5px solid green;"">Correct!</p>","null","","",""
"","","","","","html-keyboard-response","198","2.0.0","347578","pbtj1l4nxbp","null","<div style=""font-size: 75px;"">+</div>","null","","",""
"","","","","","image-keyboard-response","199","2.0.0","353034","pbtj1l4nxbp","5454","stimuli/29_150.jpg","f","response","f","true"
"","","","","","html-keyboard-response","200","2.0.0","353542","pbtj1l4nxbp","null","<p style=""border: 5px solid green;"">Correct!</p>","null","","",""
"","","","","","html-keyboard-response","201","2.0.0","354560","pbtj1l4nxbp","null","<div style=""font-size: 75px;"">+</div>","null","","",""
"","","","","","image-keyboard-response","202","2.0.0","355736","pbtj1l4nxbp","1175","stimuli/33_0.jpg","f","response","f","true"
"","","","","","html-keyboard-response","203","2.0.0","356248","pbtj1l4nxbp","null","<p style=""border: 5px solid green;"">Correct!</p>","null","","",""
"","","","","","html-keyboard-response","204","2.0.0","357263","pbtj1l4nxbp","null","<div style=""font-size: 75px;"">+</div>","null","","",""
"","","","","","image-keyboard-response","205","2.0.0","358976","pbtj1l4nxbp","1711","stimuli/15_0_R.jpg","j","response","j","true"
"","","","","","html-keyboard-response","206","2.0.0","359487","pbtj1l4nxbp","null","<p style=""border: 5px solid green;"">Correct!</p>","null","","",""
"","","","","","html-keyboard-response","207","2.0.0","360498","pbtj1l4nxbp","null","<div style=""font-size: 75px;"">+</div>","null","","",""
"","","","","","image-keyboard-response","208","2.0.0","361619","pbtj1l4nxbp","1119","stimuli/30_0.jpg","f","response","f","true"
"","","","","","html-keyboard-response","209","2.0.0","362131","pbtj1l4nxbp","null","<p style=""border: 5px solid green;"">Correct!</p>","null","","",""
"","","","","","html-keyboard-response","210","2.0.0","363144","pbtj1l4nxbp","null","<div style=""font-size: 75px;"">+</div>","null","","",""
"","","","","","image-keyboard-response","211","2.0.0","365062","pbtj1l4nxbp","1916","stimuli/16_100.jpg","f","response","f","true"
"","","","","","html-keyboard-response","212","2.0.0","365577","pbtj1l4nxbp","null","<p style=""border: 5px solid green;"">Correct!</p>","null","","",""
"","","","","","html-keyboard-response","213","2.0.0","366592","pbtj1l4nxbp","null","<div style=""font-size: 75px;"">+</div>","null","","",""
"","","","","","image-keyboard-response","214","2.0.0","367279","pbtj1l4nxbp","686","stimuli/38_0.jpg","f","response","f","true"
"","","","","","html-keyboard-response","215","2.0.0","367782","pbtj1l4nxbp","null","<p style=""border: 5px solid green;"">Correct!</p>","null","","",""
"","","","","","html-keyboard-response","216","2.0.0","368786","pbtj1l4nxbp","null","<div style=""font-size: 75px;"">+</div>","null","","",""
"","","","","","image-keyboard-response","217","2.0.0","369740","pbtj1l4nxbp","951","stimuli/6_100_R.jpg","j","response","j","true"
"","","","","","html-keyboard-response","218","2.0.0","370255","pbtj1l4nxbp","null","<p style=""border: 5px solid green;"">Correct!</p>","null","","",""
"","","","","","html-keyboard-response","219","2.0.0","371271","pbtj1l4nxbp","null","<div style=""font-size: 75px;"">+</div>","null","","",""
"","","","","","image-keyboard-response","220","2.0.0","372164","pbtj1l4nxbp","891","stimuli/2_0_R.jpg","f","response","j","false"
"","","","","","html-keyboard-response","221","2.0.0","372676","pbtj1l4nxbp","null","<p style=""border: 5px solid red;"">Incorrect.</p>","null","","",""
"","","","","","html-keyboard-response","222","2.0.0","373692","pbtj1l4nxbp","null","<div style=""font-size: 75px;"">+</div>","null","","",""
"","","","","","image-keyboard-response","223","2.0.0","374490","pbtj1l4nxbp","795","stimuli/24_0_R.jpg","j","response","j","true"
"","","","","","html-keyboard-response","224","2.0.0","375000","pbtj1l4nxbp","null","<p style=""border: 5px solid green;"">Correct!</p>","null","","",""
"","","","","","html-keyboard-response","225","2.0.0","376013","pbtj1l4nxbp","null","<div style=""font-size: 75px;"">+</div>","null","","",""
"","","","","","image-keyboard-response","226","2.0.0","378546","pbtj1l4nxbp","2531","stimuli/5_50_R.jpg","f","response","j","false"
"","","","","","html-keyboard-response","227","2.0.0","379061","pbtj1l4nxbp","null","<p style=""border: 5px solid red;"">Incorrect.</p>","null","","",""
"","","","","","html-keyboard-response","228","2.0.0","380075","pbtj1l4nxbp","null","<div style=""font-size: 75px;"">+</div>","null","","",""
"","","","","","image-keyboard-response","229","2.0.0","382973","pbtj1l4nxbp","2895","stimuli/34_150.jpg","f","response","f","true"
"","","","","","html-keyboard-response","230","2.0.0","383477","pbtj1l4nxbp","null","<p style=""border: 5px solid green;"">Correct!</p>","null","","",""
"","","","","","html-keyboard-response","231","2.0.0","384483","pbtj1l4nxbp","null","<div style=""font-size: 75px;"">+</div>","null","","",""
"","","","","","image-keyboard-response","232","2.0.0","387910","pbtj1l4nxbp","3425","stimuli/38_150_R.jpg","f","response","j","false"
"","","","","","html-keyboard-response","233","2.0.0","388424","pbtj1l4nxbp","null","<p style=""border: 5px solid red;"">Incorrect.</p>","null","","",""
"","","","","","html-keyboard-response","234","2.0.0","389436","pbtj1l4nxbp","null","<div style=""font-size: 75px;"">+</div>","null","","",""
"","","","","","image-keyboard-response","235","2.0.0","392493","pbtj1l4nxbp","3056","stimuli/34_50.jpg","j","response","f","false"
"","","","","","html-keyboard-response","236","2.0.0","393008","pbtj1l4nxbp","null","<p style=""border: 5px solid red;"">Incorrect.</p>","null","","",""
"","","","","","html-keyboard-response","237","2.0.0","394021","pbtj1l4nxbp","null","<div style=""font-size: 75px;"">+</div>","null","","",""
"","","","","","image-keyboard-response","238","2.0.0","394962","pbtj1l4nxbp","939","stimuli/43_0_R.jpg","j","response","j","true"
"","","","","","html-keyboard-response","239","2.0.0","395471","pbtj1l4nxbp","null","<p style=""border: 5px solid green;"">Correct!</p>","null","","",""
"","","","","","html-keyboard-response","240","2.0.0","396474","pbtj1l4nxbp","null","<div style=""font-size: 75px;"">+</div>","null","","",""
"","","","","","image-keyboard-response","241","2.0.0","398523","pbtj1l4nxbp","2047","stimuli/16_150_R.jpg","f","response","j","false"
"","","","","","html-keyboard-response","242","2.0.0","399026","pbtj1l4nxbp","null","<p style=""border: 5px solid red;"">Incorrect.</p>","null","","",""
"","","","","","html-keyboard-response","243","2.0.0","400041","pbtj1l4nxbp","null","<div style=""font-size: 75px;"">+</div>","null","","",""
"","","","","","image-keyboard-response","244","2.0.0","404807","pbtj1l4nxbp","4765","stimuli/27_50.jpg","f","response","f","true"
"","","","","","html-keyboard-response","245","2.0.0","405317","pbtj1l4nxbp","null","<p style=""border: 5px solid green;"">Correct!</p>","null","","",""
"","","","","","html-keyboard-response","246","2.0.0","406319","pbtj1l4nxbp","null","<div style=""font-size: 75px;"">+</div>","null","","",""
"","","","","","image-keyboard-response","247","2.0.0","407406","pbtj1l4nxbp","1085","stimuli/32_0.jpg","f","response","f","true"
"","","","","","html-keyboard-response","248","2.0.0","407920","pbtj1l4nxbp","null","<p style=""border: 5px solid green;"">Correct!</p>","null","","",""
"","","","","","html-keyboard-response","249","2.0.0","408924","pbtj1l4nxbp","null","<div style=""font-size: 75px;"">+</div>","null","","",""
"","","","","","image-keyboard-response","250","2.0.0","412986","pbtj1l4nxbp","4060","stimuli/17_50.jpg","f","response","f","true"
"","","","","","html-keyboard-response","251","2.0.0","413500","pbtj1l4nxbp","null","<p style=""border: 5px solid green;"">Correct!</p>","null","","",""
"","","","","","html-keyboard-response","252","2.0.0","414506","pbtj1l4nxbp","null","<div style=""font-size: 75px;"">+</div>","null","","",""
"","","","","","image-keyboard-response","253","2.0.0","415768","pbtj1l4nxbp","1260","stimuli/6_150_R.jpg","j","response","j","true"
"","","","","","html-keyboard-response","254","2.0.0","416278","pbtj1l4nxbp","null","<p style=""border: 5px solid green;"">Correct!</p>","null","","",""
"","","","","","html-keyboard-response","255","2.0.0","417294","pbtj1l4nxbp","null","<div style=""font-size: 75px;"">+</div>","null","","",""
"","","","","","image-keyboard-response","256","2.0.0","418205","pbtj1l4nxbp","909","stimuli/38_50_R.jpg","j","response","j","true"
"","","","","","html-keyboard-response","257","2.0.0","418720","pbtj1l4nxbp","null","<p style=""border: 5px solid green;"">Correct!</p>","null","","",""
"","","","","","html-keyboard-response","258","2.0.0","419721","pbtj1l4nxbp","null","<div style=""font-size: 75px;"">+</div>","null","","",""
"","","","","","image-keyboard-response","259","2.0.0","421997","pbtj1l4nxbp","2273","stimuli/45_0_R.jpg","j","response","j","true"
"","","","","","html-keyboard-response","260","2.0.0","422511","pbtj1l4nxbp","null","<p style=""border: 5px solid green;"">Correct!</p>","null","","",""
"","","","","","html-keyboard-response","261","2.0.0","423516","pbtj1l4nxbp","null","<div style=""font-size: 75px;"">+</div>","null","","",""
"","","","","","image-keyboard-response","262","2.0.0","424865","pbtj1l4nxbp","1347","stimuli/36_0.jpg","f","response","f","true"
"","","","","","html-keyboard-response","263","2.0.0","425378","pbtj1l4nxbp","null","<p style=""border: 5px solid green;"">Correct!</p>","null","","",""
"","","","","","html-keyboard-response","264","2.0.0","426392","pbtj1l4nxbp","null","<div style=""font-size: 75px;"">+</div>","null","","",""
"","","","","","image-keyboard-response","265","2.0.0","427919","pbtj1l4nxbp","1525","stimuli/9_50_R.jpg","j","response","j","true"
"","","","","","html-keyboard-response","266","2.0.0","428432","pbtj1l4nxbp","null","<p style=""border: 5px solid green;"">Correct!</p>","null","","",""
"","","","","","html-keyboard-response","267","2.0.0","429447","pbtj1l4nxbp","null","<div style=""font-size: 75px;"">+</div>","null","","",""
"","","","","","image-keyboard-response","268","2.0.0","432023","pbtj1l4nxbp","2574","stimuli/23_50.jpg","f","response","f","true"
"","","","","","html-keyboard-response","269","2.0.0","432529","pbtj1l4nxbp","null","<p style=""border: 5px solid green;"">Correct!</p>","null","","",""
"","","","","","html-keyboard-response","270","2.0.0","433543","pbtj1l4nxbp","null","<div style=""font-size: 75px;"">+</div>","null","","",""
"","","","","","image-keyboard-response","271","2.0.0","439379","pbtj1l4nxbp","5834","stimuli/13_150.jpg","f","response","f","true"
"","","","","","html-keyboard-response","272","2.0.0","439891","pbtj1l4nxbp","null","<p style=""border: 5px solid green;"">Correct!</p>","null","","",""
"","","","","","html-keyboard-response","273","2.0.0","440907","pbtj1l4nxbp","null","<div style=""font-size: 75px;"">+</div>","null","","",""
"","","","","","image-keyboard-response","274","2.0.0","443800","pbtj1l4nxbp","2891","stimuli/43_100.jpg","f","response","f","true"
"","","","","","html-keyboard-response","275","2.0.0","444312","pbtj1l4nxbp","null","<p style=""border: 5px solid green;"">Correct!</p>","null","","",""
"","","","","","html-keyboard-response","276","2.0.0","445314","pbtj1l4nxbp","null","<div style=""font-size: 75px;"">+</div>","null","","",""
"","","","","","image-keyboard-response","277","2.0.0","447184","pbtj1l4nxbp","1868","stimuli/46_100_R.jpg","j","response","j","true"
"","","","","","html-keyboard-response","278","2.0.0","447699","pbtj1l4nxbp","null","<p style=""border: 5px solid green;"">Correct!</p>","null","","",""
"","","","","","html-keyboard-response","279","2.0.0","448716","pbtj1l4nxbp","null","<div style=""font-size: 75px;"">+</div>","null","","",""
"","","","","","image-keyboard-response","280","2.0.0","449874","pbtj1l4nxbp","1156","stimuli/10_0.jpg","f","response","f","true"
"","","","","","html-keyboard-response","281","2.0.0","450385","pbtj1l4nxbp","null","<p style=""border: 5px solid green;"">Correct!</p>","null","","",""
"","","","","","html-keyboard-response","282","2.0.0","451402","pbtj1l4nxbp","null","<div style=""font-size: 75px;"">+</div>","null","","",""
"","","","","","image-keyboard-response","283","2.0.0","455824","pbtj1l4nxbp","4420","stimuli/36_150.jpg","j","response","f","false"
"","","","","","html-keyboard-response","284","2.0.0","456338","pbtj1l4nxbp","null","<p style=""border: 5px solid red;"">Incorrect.</p>","null","","",""
"","","","","","html-keyboard-response","285","2.0.0","457355","pbtj1l4nxbp","null","<div style=""font-size: 75px;"">+</div>","null","","",""
"","","","","","image-keyboard-response","286","2.0.0","458027","pbtj1l4nxbp","670","stimuli/21_0.jpg","f","response","f","true"
"","","","","","html-keyboard-response","287","2.0.0","458543","pbtj1l4nxbp","null","<p style=""border: 5px solid green;"">Correct!</p>","null","","",""
"","","","","","html-keyboard-response","288","2.0.0","459557","pbtj1l4nxbp","null","<div style=""font-size: 75px;"">+</div>","null","","",""
"","","","","","image-keyboard-response","289","2.0.0","460314","pbtj1l4nxbp","755","stimuli/19_0.jpg","f","response","f","true"
"","","","","","html-keyboard-response","290","2.0.0","460826","pbtj1l4nxbp","null","<p style=""border: 5px solid green;"">Correct!</p>","null","","",""
"","","","","","html-keyboard-response","291","2.0.0","461837","pbtj1l4nxbp","null","<div style=""font-size: 75px;"">+</div>","null","","",""
"","","","","","image-keyboard-response","292","2.0.0","463536","pbtj1l4nxbp","1696","stimuli/14_100.jpg","f","response","f","true"
"","","","","","html-keyboard-response","293","2.0.0","464050","pbtj1l4nxbp","null","<p style=""border: 5px solid green;"">Correct!</p>","null","","",""
"","","","","","html-keyboard-response","294","2.0.0","465429","pbtj1l4nxbp","1378","<p>Thank you for participating!</p><p>Please press space to answer our survey.</p>"," ","","",""
"","","","","","survey-html-form","295","null","578782","pbtj1l4nxbp","113348","","{""response_1"":""Clear and lively"",""response_2"":""Clear and lively"",""response_3"":""Moderately clear and lively"",""response_4"":""Clear and lively"",""response_5"":""Clear and lively"",""response_6"":""Clear and lively"",""response_7"":""Moderately clear and lively"",""response_8"":""Moderately clear and lively"",""response_9"":""Clear and lively"",""response_10"":""Clear and lively"",""response_11"":""Clear and lively"",""response_12"":""Clear and lively"",""response_13"":""Clear and lively"",""response_14"":""Clear and lively"",""response_15"":""Clear and lively"",""response_16"":""Moderately clear and lively""}","","",""
"","","","","","survey-html-form","296","null","606461","pbtj1l4nxbp","27675","","{""age"":""20"",""gender"":""female"",""education"":""some-college"",""handedness"":""right"",""vision"":""corrected"",""technical_difficulties"":""no"",""knowledge_check"":""how we can mentally rotate objects""}","","",""
