"success","timeout","failed_images","failed_audio","failed_video","trial_type","trial_index","plugin_version","time_elapsed","random_id","rt","stimulus","response","task","correct_response","correct"
"true","false","[]","[]","[]","preload","0","2.0.0","1916","pe4d1dwqoxs","","","","","",""
"true","","","","","fullscreen","1","2.0.0","3735","pe4d1dwqoxs","808","","","","",""
"","","","","","html-keyboard-response","2","2.0.0","4424","pe4d1dwqoxs","686","Welcome to the experiment. Press any key to begin."," ","","",""
"","","","","","survey-text","3","2.0.0","6734","pe4d1dwqoxs","2305","","{""participant_id"":""penguin""}","","",""
"","","","","","html-keyboard-response","4","2.0.0","15100","pe4d1dwqoxs","8365","
        <p>Welcome to the experiment.</p>
        <p>In this task, you will see pairs of images.</p>
        <p>Your job is to determine whether the image on the right is a rotated version of the image on the left.</p>
        <p>Press the <strong>F</strong> key if the images are the same.</p>
        <p>Press the <strong>J</strong> key if the images are different.</p>
        <p>Press any key to begin.</p>
    "," ","","",""
"","","","","","html-keyboard-response","5","2.0.0","16105","pe4d1dwqoxs","null","<div style=""font-size: 75px;"">+</div>","null","","",""
"","","","","","image-keyboard-response","6","2.0.0","19434","pe4d1dwqoxs","3325","stimuli/46_150_R.jpg","j","response","j","true"
"","","","","","html-keyboard-response","7","2.0.0","19949","pe4d1dwqoxs","null","<p style=""border: 5px solid green;"">Correct!</p>","null","","",""
"","","","","","html-keyboard-response","8","2.0.0","20957","pe4d1dwqoxs","null","<div style=""font-size: 75px;"">+</div>","null","","",""
"","","","","","image-keyboard-response","9","2.0.0","25061","pe4d1dwqoxs","4102","stimuli/15_0_R.jpg","j","response","j","true"
"","","","","","html-keyboard-response","10","2.0.0","25575","pe4d1dwqoxs","null","<p style=""border: 5px solid green;"">Correct!</p>","null","","",""
"","","","","","html-keyboard-response","11","2.0.0","26585","pe4d1dwqoxs","null","<div style=""font-size: 75px;"">+</div>","null","","",""
"","","","","","image-keyboard-response","12","2.0.0","27962","pe4d1dwqoxs","1375","stimuli/24_50_R.jpg","j","response","j","true"
"","","","","","html-keyboard-response","13","2.0.0","28466","pe4d1dwqoxs","null","<p style=""border: 5px solid green;"">Correct!</p>","null","","",""
"","","","","","html-keyboard-response","14","2.0.0","29478","pe4d1dwqoxs","null","<div style=""font-size: 75px;"">+</div>","null","","",""
"","","","","","image-keyboard-response","15","2.0.0","31068","pe4d1dwqoxs","1589","stimuli/9_150_R.jpg","j","response","j","true"
"","","","","","html-keyboard-response","16","2.0.0","31575","pe4d1dwqoxs","null","<p style=""border: 5px solid green;"">Correct!</p>","null","","",""
"","","","","","html-keyboard-response","17","2.0.0","32591","pe4d1dwqoxs","null","<div style=""font-size: 75px;"">+</div>","null","","",""
"","","","","","image-keyboard-response","18","2.0.0","35312","pe4d1dwqoxs","2720","stimuli/1_100_R.jpg","j","response","j","true"
"","","","","","html-keyboard-response","19","2.0.0","35824","pe4d1dwqoxs","null","<p style=""border: 5px solid green;"">Correct!</p>","null","","",""
"","","","","","html-keyboard-response","20","2.0.0","36837","pe4d1dwqoxs","null","<div style=""font-size: 75px;"">+</div>","null","","",""
"","","","","","image-keyboard-response","21","2.0.0","38218","pe4d1dwqoxs","1380","stimuli/4_0.jpg","f","response","f","true"
"","","","","","html-keyboard-response","22","2.0.0","38721","pe4d1dwqoxs","null","<p style=""border: 5px solid green;"">Correct!</p>","null","","",""
"","","","","","html-keyboard-response","23","2.0.0","39736","pe4d1dwqoxs","null","<div style=""font-size: 75px;"">+</div>","null","","",""
"","","","","","image-keyboard-response","24","2.0.0","41119","pe4d1dwqoxs","1382","stimuli/5_100_R.jpg","j","response","j","true"
"","","","","","html-keyboard-response","25","2.0.0","41634","pe4d1dwqoxs","null","<p style=""border: 5px solid green;"">Correct!</p>","null","","",""
"","","","","","html-keyboard-response","26","2.0.0","42649","pe4d1dwqoxs","null","<div style=""font-size: 75px;"">+</div>","null","","",""
"","","","","","image-keyboard-response","27","2.0.0","43750","pe4d1dwqoxs","1100","stimuli/10_150_R.jpg","j","response","j","true"
"","","","","","html-keyboard-response","28","2.0.0","44252","pe4d1dwqoxs","null","<p style=""border: 5px solid green;"">Correct!</p>","null","","",""
"","","","","","html-keyboard-response","29","2.0.0","45267","pe4d1dwqoxs","null","<div style=""font-size: 75px;"">+</div>","null","","",""
"","","","","","image-keyboard-response","30","2.0.0","46338","pe4d1dwqoxs","1070","stimuli/2_50.jpg","j","response","f","false"
"","","","","","html-keyboard-response","31","2.0.0","46849","pe4d1dwqoxs","null","<p style=""border: 5px solid red;"">Incorrect.</p>","null","","",""
"","","","","","html-keyboard-response","32","2.0.0","47860","pe4d1dwqoxs","null","<div style=""font-size: 75px;"">+</div>","null","","",""
"","","","","","image-keyboard-response","33","2.0.0","49433","pe4d1dwqoxs","1572","stimuli/27_50_R.jpg","j","response","j","true"
"","","","","","html-keyboard-response","34","2.0.0","49945","pe4d1dwqoxs","null","<p style=""border: 5px solid green;"">Correct!</p>","null","","",""
"","","","","","html-keyboard-response","35","2.0.0","50958","pe4d1dwqoxs","null","<div style=""font-size: 75px;"">+</div>","null","","",""
"","","","","","image-keyboard-response","36","2.0.0","59300","pe4d1dwqoxs","8341","stimuli/31_50_R.jpg","j","response","j","true"
"","","","","","html-keyboard-response","37","2.0.0","59805","pe4d1dwqoxs","null","<p style=""border: 5px solid green;"">Correct!</p>","null","","",""
"","","","","","html-keyboard-response","38","2.0.0","60814","pe4d1dwqoxs","null","<div style=""font-size: 75px;"">+</div>","null","","",""
"","","","","","image-keyboard-response","39","2.0.0","65740","pe4d1dwqoxs","4925","stimuli/19_150.jpg","f","response","f","true"
"","","","","","html-keyboard-response","40","2.0.0","66243","pe4d1dwqoxs","null","<p style=""border: 5px solid green;"">Correct!</p>","null","","",""
"","","","","","html-keyboard-response","41","2.0.0","67245","pe4d1dwqoxs","null","<div style=""font-size: 75px;"">+</div>","null","","",""
"","","","","","image-keyboard-response","42","2.0.0","72548","pe4d1dwqoxs","5302","stimuli/10_150.jpg","f","response","f","true"
"","","","","","html-keyboard-response","43","2.0.0","73050","pe4d1dwqoxs","null","<p style=""border: 5px solid green;"">Correct!</p>","null","","",""
"","","","","","html-keyboard-response","44","2.0.0","74066","pe4d1dwqoxs","null","<div style=""font-size: 75px;"">+</div>","null","","",""
"","","","","","image-keyboard-response","45","2.0.0","75386","pe4d1dwqoxs","1319","stimuli/20_0.jpg","f","response","f","true"
"","","","","","html-keyboard-response","46","2.0.0","75888","pe4d1dwqoxs","null","<p style=""border: 5px solid green;"">Correct!</p>","null","","",""
"","","","","","html-keyboard-response","47","2.0.0","76897","pe4d1dwqoxs","null","<div style=""font-size: 75px;"">+</div>","null","","",""
"","","","","","image-keyboard-response","48","2.0.0","78178","pe4d1dwqoxs","1280","stimuli/26_0.jpg","f","response","f","true"
"","","","","","html-keyboard-response","49","2.0.0","78683","pe4d1dwqoxs","null","<p style=""border: 5px solid green;"">Correct!</p>","null","","",""
"","","","","","html-keyboard-response","50","2.0.0","79694","pe4d1dwqoxs","null","<div style=""font-size: 75px;"">+</div>","null","","",""
"","","","","","image-keyboard-response","51","2.0.0","81886","pe4d1dwqoxs","2191","stimuli/47_50.jpg","f","response","f","true"
"","","","","","html-keyboard-response","52","2.0.0","82400","pe4d1dwqoxs","null","<p style=""border: 5px solid green;"">Correct!</p>","null","","",""
"","","","","","html-keyboard-response","53","2.0.0","83405","pe4d1dwqoxs","null","<div style=""font-size: 75px;"">+</div>","null","","",""
"","","","","","image-keyboard-response","54","2.0.0","88256","pe4d1dwqoxs","4850","stimuli/40_150_R.jpg","j","response","j","true"
"","","","","","html-keyboard-response","55","2.0.0","88761","pe4d1dwqoxs","null","<p style=""border: 5px solid green;"">Correct!</p>","null","","",""
"","","","","","html-keyboard-response","56","2.0.0","89770","pe4d1dwqoxs","null","<div style=""font-size: 75px;"">+</div>","null","","",""
"","","","","","image-keyboard-response","57","2.0.0","95651","pe4d1dwqoxs","5880","stimuli/28_100_R.jpg","j","response","j","true"
"","","","","","html-keyboard-response","58","2.0.0","96165","pe4d1dwqoxs","null","<p style=""border: 5px solid green;"">Correct!</p>","null","","",""
"","","","","","html-keyboard-response","59","2.0.0","97177","pe4d1dwqoxs","null","<div style=""font-size: 75px;"">+</div>","null","","",""
"","","","","","image-keyboard-response","60","2.0.0","101315","pe4d1dwqoxs","4135","stimuli/10_100.jpg","f","response","f","true"
"","","","","","html-keyboard-response","61","2.0.0","101829","pe4d1dwqoxs","null","<p style=""border: 5px solid green;"">Correct!</p>","null","","",""
"","","","","","html-keyboard-response","62","2.0.0","102847","pe4d1dwqoxs","null","<div style=""font-size: 75px;"">+</div>","null","","",""
"","","","","","image-keyboard-response","63","2.0.0","106847","pe4d1dwqoxs","3998","stimuli/37_150.jpg","f","response","f","true"
"","","","","","html-keyboard-response","64","2.0.0","107363","pe4d1dwqoxs","null","<p style=""border: 5px solid green;"">Correct!</p>","null","","",""
"","","","","","html-keyboard-response","65","2.0.0","108373","pe4d1dwqoxs","null","<div style=""font-size: 75px;"">+</div>","null","","",""
"","","","","","image-keyboard-response","66","2.0.0","110874","pe4d1dwqoxs","2500","stimuli/44_50.jpg","f","response","f","true"
"","","","","","html-keyboard-response","67","2.0.0","111376","pe4d1dwqoxs","null","<p style=""border: 5px solid green;"">Correct!</p>","null","","",""
"","","","","","html-keyboard-response","68","2.0.0","112391","pe4d1dwqoxs","null","<div style=""font-size: 75px;"">+</div>","null","","",""
"","","","","","image-keyboard-response","69","2.0.0","116047","pe4d1dwqoxs","3651","stimuli/7_150.jpg","f","response","f","true"
"","","","","","html-keyboard-response","70","2.0.0","116559","pe4d1dwqoxs","null","<p style=""border: 5px solid green;"">Correct!</p>","null","","",""
"","","","","","html-keyboard-response","71","2.0.0","117574","pe4d1dwqoxs","null","<div style=""font-size: 75px;"">+</div>","null","","",""
"","","","","","image-keyboard-response","72","2.0.0","119246","pe4d1dwqoxs","1671","stimuli/42_50_R.jpg","j","response","j","true"
"","","","","","html-keyboard-response","73","2.0.0","119757","pe4d1dwqoxs","null","<p style=""border: 5px solid green;"">Correct!</p>","null","","",""
"","","","","","html-keyboard-response","74","2.0.0","120772","pe4d1dwqoxs","null","<div style=""font-size: 75px;"">+</div>","null","","",""
"","","","","","image-keyboard-response","75","2.0.0","122655","pe4d1dwqoxs","1882","stimuli/29_100.jpg","f","response","f","true"
"","","","","","html-keyboard-response","76","2.0.0","123164","pe4d1dwqoxs","null","<p style=""border: 5px solid green;"">Correct!</p>","null","","",""
"","","","","","html-keyboard-response","77","2.0.0","124180","pe4d1dwqoxs","null","<div style=""font-size: 75px;"">+</div>","null","","",""
"","","","","","image-keyboard-response","78","2.0.0","125792","pe4d1dwqoxs","1611","stimuli/1_50.jpg","f","response","f","true"
"","","","","","html-keyboard-response","79","2.0.0","126304","pe4d1dwqoxs","null","<p style=""border: 5px solid green;"">Correct!</p>","null","","",""
"","","","","","html-keyboard-response","80","2.0.0","127305","pe4d1dwqoxs","null","<div style=""font-size: 75px;"">+</div>","null","","",""
"","","","","","image-keyboard-response","81","2.0.0","128346","pe4d1dwqoxs","1040","stimuli/24_0.jpg","f","response","f","true"
"","","","","","html-keyboard-response","82","2.0.0","128849","pe4d1dwqoxs","null","<p style=""border: 5px solid green;"">Correct!</p>","null","","",""
"","","","","","html-keyboard-response","83","2.0.0","129859","pe4d1dwqoxs","null","<div style=""font-size: 75px;"">+</div>","null","","",""
"","","","","","image-keyboard-response","84","2.0.0","130982","pe4d1dwqoxs","1121","stimuli/9_0.jpg","f","response","f","true"
"","","","","","html-keyboard-response","85","2.0.0","131498","pe4d1dwqoxs","null","<p style=""border: 5px solid green;"">Correct!</p>","null","","",""
"","","","","","html-keyboard-response","86","2.0.0","132513","pe4d1dwqoxs","null","<div style=""font-size: 75px;"">+</div>","null","","",""
"","","","","","image-keyboard-response","87","2.0.0","135716","pe4d1dwqoxs","3202","stimuli/12_50_R.jpg","j","response","j","true"
"","","","","","html-keyboard-response","88","2.0.0","136223","pe4d1dwqoxs","null","<p style=""border: 5px solid green;"">Correct!</p>","null","","",""
"","","","","","html-keyboard-response","89","2.0.0","137235","pe4d1dwqoxs","null","<div style=""font-size: 75px;"">+</div>","null","","",""
"","","","","","image-keyboard-response","90","2.0.0","140187","pe4d1dwqoxs","2950","stimuli/27_100.jpg","f","response","f","true"
"","","","","","html-keyboard-response","91","2.0.0","140692","pe4d1dwqoxs","null","<p style=""border: 5px solid green;"">Correct!</p>","null","","",""
"","","","","","html-keyboard-response","92","2.0.0","141705","pe4d1dwqoxs","null","<div style=""font-size: 75px;"">+</div>","null","","",""
"","","","","","image-keyboard-response","93","2.0.0","142398","pe4d1dwqoxs","692","stimuli/30_0.jpg","f","response","f","true"
"","","","","","html-keyboard-response","94","2.0.0","142909","pe4d1dwqoxs","null","<p style=""border: 5px solid green;"">Correct!</p>","null","","",""
"","","","","","html-keyboard-response","95","2.0.0","143925","pe4d1dwqoxs","null","<div style=""font-size: 75px;"">+</div>","null","","",""
"","","","","","image-keyboard-response","96","2.0.0","147475","pe4d1dwqoxs","3548","stimuli/25_100_R.jpg","j","response","j","true"
"","","","","","html-keyboard-response","97","2.0.0","147982","pe4d1dwqoxs","null","<p style=""border: 5px solid green;"">Correct!</p>","null","","",""
"","","","","","html-keyboard-response","98","2.0.0","148996","pe4d1dwqoxs","null","<div style=""font-size: 75px;"">+</div>","null","","",""
"","","","","","image-keyboard-response","99","2.0.0","151341","pe4d1dwqoxs","2344","stimuli/17_100.jpg","f","response","f","true"
"","","","","","html-keyboard-response","100","2.0.0","151850","pe4d1dwqoxs","null","<p style=""border: 5px solid green;"">Correct!</p>","null","","",""
"","","","","","html-keyboard-response","101","2.0.0","152855","pe4d1dwqoxs","null","<div style=""font-size: 75px;"">+</div>","null","","",""
"","","","","","image-keyboard-response","102","2.0.0","154738","pe4d1dwqoxs","1882","stimuli/14_100_R.jpg","j","response","j","true"
"","","","","","html-keyboard-response","103","2.0.0","155254","pe4d1dwqoxs","null","<p style=""border: 5px solid green;"">Correct!</p>","null","","",""
"","","","","","html-keyboard-response","104","2.0.0","156265","pe4d1dwqoxs","null","<div style=""font-size: 75px;"">+</div>","null","","",""
"","","","","","image-keyboard-response","105","2.0.0","157925","pe4d1dwqoxs","1659","stimuli/5_100.jpg","f","response","f","true"
"","","","","","html-keyboard-response","106","2.0.0","158432","pe4d1dwqoxs","null","<p style=""border: 5px solid green;"">Correct!</p>","null","","",""
"","","","","","html-keyboard-response","107","2.0.0","159442","pe4d1dwqoxs","null","<div style=""font-size: 75px;"">+</div>","null","","",""
"","","","","","image-keyboard-response","108","2.0.0","162657","pe4d1dwqoxs","3213","stimuli/31_100_R.jpg","j","response","j","true"
"","","","","","html-keyboard-response","109","2.0.0","163159","pe4d1dwqoxs","null","<p style=""border: 5px solid green;"">Correct!</p>","null","","",""
"","","","","","html-keyboard-response","110","2.0.0","164160","pe4d1dwqoxs","null","<div style=""font-size: 75px;"">+</div>","null","","",""
"","","","","","image-keyboard-response","111","2.0.0","165404","pe4d1dwqoxs","1242","stimuli/31_0_R.jpg","j","response","j","true"
"","","","","","html-keyboard-response","112","2.0.0","165912","pe4d1dwqoxs","null","<p style=""border: 5px solid green;"">Correct!</p>","null","","",""
"","","","","","html-keyboard-response","113","2.0.0","166925","pe4d1dwqoxs","null","<div style=""font-size: 75px;"">+</div>","null","","",""
"","","","","","image-keyboard-response","114","2.0.0","169477","pe4d1dwqoxs","2550","stimuli/43_100_R.jpg","j","response","j","true"
"","","","","","html-keyboard-response","115","2.0.0","169987","pe4d1dwqoxs","null","<p style=""border: 5px solid green;"">Correct!</p>","null","","",""
"","","","","","html-keyboard-response","116","2.0.0","170990","pe4d1dwqoxs","null","<div style=""font-size: 75px;"">+</div>","null","","",""
"","","","","","image-keyboard-response","117","2.0.0","175551","pe4d1dwqoxs","4561","stimuli/4_0_R.jpg","j","response","j","true"
"","","","","","html-keyboard-response","118","2.0.0","176058","pe4d1dwqoxs","null","<p style=""border: 5px solid green;"">Correct!</p>","null","","",""
"","","","","","html-keyboard-response","119","2.0.0","177062","pe4d1dwqoxs","null","<div style=""font-size: 75px;"">+</div>","null","","",""
"","","","","","image-keyboard-response","120","2.0.0","179309","pe4d1dwqoxs","2245","stimuli/30_50_R.jpg","j","response","j","true"
"","","","","","html-keyboard-response","121","2.0.0","179812","pe4d1dwqoxs","null","<p style=""border: 5px solid green;"">Correct!</p>","null","","",""
"","","","","","html-keyboard-response","122","2.0.0","180824","pe4d1dwqoxs","null","<div style=""font-size: 75px;"">+</div>","null","","",""
"","","","","","image-keyboard-response","123","2.0.0","182798","pe4d1dwqoxs","1972","stimuli/37_50.jpg","f","response","f","true"
"","","","","","html-keyboard-response","124","2.0.0","183307","pe4d1dwqoxs","null","<p style=""border: 5px solid green;"">Correct!</p>","null","","",""
"","","","","","html-keyboard-response","125","2.0.0","184317","pe4d1dwqoxs","null","<div style=""font-size: 75px;"">+</div>","null","","",""
"","","","","","image-keyboard-response","126","2.0.0","185029","pe4d1dwqoxs","711","stimuli/21_50_R.jpg","j","response","j","true"
"","","","","","html-keyboard-response","127","2.0.0","185535","pe4d1dwqoxs","null","<p style=""border: 5px solid green;"">Correct!</p>","null","","",""
"","","","","","html-keyboard-response","128","2.0.0","186547","pe4d1dwqoxs","null","<div style=""font-size: 75px;"">+</div>","null","","",""
"","","","","","image-keyboard-response","129","2.0.0","189627","pe4d1dwqoxs","3078","stimuli/35_150_R.jpg","j","response","j","true"
"","","","","","html-keyboard-response","130","2.0.0","190136","pe4d1dwqoxs","null","<p style=""border: 5px solid green;"">Correct!</p>","null","","",""
"","","","","","html-keyboard-response","131","2.0.0","191150","pe4d1dwqoxs","null","<div style=""font-size: 75px;"">+</div>","null","","",""
"","","","","","image-keyboard-response","132","2.0.0","192205","pe4d1dwqoxs","1054","stimuli/2_50_R.jpg","f","response","j","false"
"","","","","","html-keyboard-response","133","2.0.0","192713","pe4d1dwqoxs","null","<p style=""border: 5px solid red;"">Incorrect.</p>","null","","",""
"","","","","","html-keyboard-response","134","2.0.0","193717","pe4d1dwqoxs","null","<div style=""font-size: 75px;"">+</div>","null","","",""
"","","","","","image-keyboard-response","135","2.0.0","197810","pe4d1dwqoxs","4091","stimuli/44_150.jpg","f","response","f","true"
"","","","","","html-keyboard-response","136","2.0.0","198316","pe4d1dwqoxs","null","<p style=""border: 5px solid green;"">Correct!</p>","null","","",""
"","","","","","html-keyboard-response","137","2.0.0","199320","pe4d1dwqoxs","null","<div style=""font-size: 75px;"">+</div>","null","","",""
"","","","","","image-keyboard-response","138","2.0.0","201006","pe4d1dwqoxs","1684","stimuli/12_0_R.jpg","j","response","j","true"
"","","","","","html-keyboard-response","139","2.0.0","201517","pe4d1dwqoxs","null","<p style=""border: 5px solid green;"">Correct!</p>","null","","",""
"","","","","","html-keyboard-response","140","2.0.0","202530","pe4d1dwqoxs","null","<div style=""font-size: 75px;"">+</div>","null","","",""
"","","","","","image-keyboard-response","141","2.0.0","205083","pe4d1dwqoxs","2551","stimuli/31_100.jpg","f","response","f","true"
"","","","","","html-keyboard-response","142","2.0.0","205588","pe4d1dwqoxs","null","<p style=""border: 5px solid green;"">Correct!</p>","null","","",""
"","","","","","html-keyboard-response","143","2.0.0","206601","pe4d1dwqoxs","null","<div style=""font-size: 75px;"">+</div>","null","","",""
"","","","","","image-keyboard-response","144","2.0.0","208522","pe4d1dwqoxs","1919","stimuli/13_50_R.jpg","j","response","j","true"
"","","","","","html-keyboard-response","145","2.0.0","209023","pe4d1dwqoxs","null","<p style=""border: 5px solid green;"">Correct!</p>","null","","",""
"","","","","","html-keyboard-response","146","2.0.0","210038","pe4d1dwqoxs","null","<div style=""font-size: 75px;"">+</div>","null","","",""
"","","","","","image-keyboard-response","147","2.0.0","211897","pe4d1dwqoxs","1858","stimuli/2_0_R.jpg","j","response","j","true"
"","","","","","html-keyboard-response","148","2.0.0","212410","pe4d1dwqoxs","null","<p style=""border: 5px solid green;"">Correct!</p>","null","","",""
"","","","","","html-keyboard-response","149","2.0.0","242423","pe4d1dwqoxs","null","<p> Take a break! Experiment continues in 30 seconds . </p>","null","","",""
"","","","","","html-keyboard-response","150","2.0.0","243435","pe4d1dwqoxs","null","<div style=""font-size: 75px;"">+</div>","null","","",""
"","","","","","image-keyboard-response","151","2.0.0","250315","pe4d1dwqoxs","6879","stimuli/35_150.jpg","f","response","f","true"
"","","","","","html-keyboard-response","152","2.0.0","250820","pe4d1dwqoxs","null","<p style=""border: 5px solid green;"">Correct!</p>","null","","",""
"","","","","","html-keyboard-response","153","2.0.0","251831","pe4d1dwqoxs","null","<div style=""font-size: 75px;"">+</div>","null","","",""
"","","","","","image-keyboard-response","154","2.0.0","256692","pe4d1dwqoxs","4859","stimuli/29_0_R.jpg","j","response","j","true"
"","","","","","html-keyboard-response","155","2.0.0","257194","pe4d1dwqoxs","null","<p style=""border: 5px solid green;"">Correct!</p>","null","","",""
"","","","","","html-keyboard-response","156","2.0.0","258209","pe4d1dwqoxs","null","<div style=""font-size: 75px;"">+</div>","null","","",""
"","","","","","image-keyboard-response","157","2.0.0","260746","pe4d1dwqoxs","2536","stimuli/22_150.jpg","f","response","f","true"
"","","","","","html-keyboard-response","158","2.0.0","261252","pe4d1dwqoxs","null","<p style=""border: 5px solid green;"">Correct!</p>","null","","",""
"","","","","","html-keyboard-response","159","2.0.0","262263","pe4d1dwqoxs","null","<div style=""font-size: 75px;"">+</div>","null","","",""
"","","","","","image-keyboard-response","160","2.0.0","263990","pe4d1dwqoxs","1725","stimuli/15_100_R.jpg","j","response","j","true"
"","","","","","html-keyboard-response","161","2.0.0","264492","pe4d1dwqoxs","null","<p style=""border: 5px solid green;"">Correct!</p>","null","","",""
"","","","","","html-keyboard-response","162","2.0.0","265507","pe4d1dwqoxs","null","<div style=""font-size: 75px;"">+</div>","null","","",""
"","","","","","image-keyboard-response","163","2.0.0","268299","pe4d1dwqoxs","2790","stimuli/42_100.jpg","f","response","f","true"
"","","","","","html-keyboard-response","164","2.0.0","268801","pe4d1dwqoxs","null","<p style=""border: 5px solid green;"">Correct!</p>","null","","",""
"","","","","","html-keyboard-response","165","2.0.0","269815","pe4d1dwqoxs","null","<div style=""font-size: 75px;"">+</div>","null","","",""
"","","","","","image-keyboard-response","166","2.0.0","271373","pe4d1dwqoxs","1557","stimuli/33_50.jpg","f","response","f","true"
"","","","","","html-keyboard-response","167","2.0.0","271879","pe4d1dwqoxs","null","<p style=""border: 5px solid green;"">Correct!</p>","null","","",""
"","","","","","html-keyboard-response","168","2.0.0","272895","pe4d1dwqoxs","null","<div style=""font-size: 75px;"">+</div>","null","","",""
"","","","","","image-keyboard-response","169","2.0.0","273959","pe4d1dwqoxs","1062","stimuli/9_50.jpg","f","response","f","true"
"","","","","","html-keyboard-response","170","2.0.0","274469","pe4d1dwqoxs","null","<p style=""border: 5px solid green;"">Correct!</p>","null","","",""
"","","","","","html-keyboard-response","171","2.0.0","275488","pe4d1dwqoxs","null","<div style=""font-size: 75px;"">+</div>","null","","",""
"","","","","","image-keyboard-response","172","2.0.0","276483","pe4d1dwqoxs","993","stimuli/29_50.jpg","f","response","f","true"
"","","","","","html-keyboard-response","173","2.0.0","276997","pe4d1dwqoxs","null","<p style=""border: 5px solid green;"">Correct!</p>","null","","",""
"","","","","","html-keyboard-response","174","2.0.0","278012","pe4d1dwqoxs","null","<div style=""font-size: 75px;"">+</div>","null","","",""
"","","","","","image-keyboard-response","175","2.0.0","279893","pe4d1dwqoxs","1880","stimuli/41_150.jpg","f","response","f","true"
"","","","","","html-keyboard-response","176","2.0.0","280399","pe4d1dwqoxs","null","<p style=""border: 5px solid green;"">Correct!</p>","null","","",""
"","","","","","html-keyboard-response","177","2.0.0","281409","pe4d1dwqoxs","null","<div style=""font-size: 75px;"">+</div>","null","","",""
"","","","","","image-keyboard-response","178","2.0.0","283417","pe4d1dwqoxs","2007","stimuli/23_150_R.jpg","j","response","j","true"
"","","","","","html-keyboard-response","179","2.0.0","283923","pe4d1dwqoxs","null","<p style=""border: 5px solid green;"">Correct!</p>","null","","",""
"","","","","","html-keyboard-response","180","2.0.0","284940","pe4d1dwqoxs","null","<div style=""font-size: 75px;"">+</div>","null","","",""
"","","","","","image-keyboard-response","181","2.0.0","289106","pe4d1dwqoxs","4165","stimuli/11_150_R.jpg","j","response","j","true"
"","","","","","html-keyboard-response","182","2.0.0","289623","pe4d1dwqoxs","null","<p style=""border: 5px solid green;"">Correct!</p>","null","","",""
"","","","","","html-keyboard-response","183","2.0.0","290636","pe4d1dwqoxs","null","<div style=""font-size: 75px;"">+</div>","null","","",""
"","","","","","image-keyboard-response","184","2.0.0","291419","pe4d1dwqoxs","782","stimuli/14_0.jpg","f","response","f","true"
"","","","","","html-keyboard-response","185","2.0.0","291930","pe4d1dwqoxs","null","<p style=""border: 5px solid green;"">Correct!</p>","null","","",""
"","","","","","html-keyboard-response","186","2.0.0","292938","pe4d1dwqoxs","null","<div style=""font-size: 75px;"">+</div>","null","","",""
"","","","","","image-keyboard-response","187","2.0.0","293942","pe4d1dwqoxs","1001","stimuli/16_0_R.jpg","j","response","j","true"
"","","","","","html-keyboard-response","188","2.0.0","294452","pe4d1dwqoxs","null","<p style=""border: 5px solid green;"">Correct!</p>","null","","",""
"","","","","","html-keyboard-response","189","2.0.0","295462","pe4d1dwqoxs","null","<div style=""font-size: 75px;"">+</div>","null","","",""
"","","","","","image-keyboard-response","190","2.0.0","296994","pe4d1dwqoxs","1530","stimuli/2_100.jpg","f","response","f","true"
"","","","","","html-keyboard-response","191","2.0.0","297501","pe4d1dwqoxs","null","<p style=""border: 5px solid green;"">Correct!</p>","null","","",""
"","","","","","html-keyboard-response","192","2.0.0","298519","pe4d1dwqoxs","null","<div style=""font-size: 75px;"">+</div>","null","","",""
"","","","","","image-keyboard-response","193","2.0.0","300195","pe4d1dwqoxs","1675","stimuli/3_50_R.jpg","j","response","j","true"
"","","","","","html-keyboard-response","194","2.0.0","300703","pe4d1dwqoxs","null","<p style=""border: 5px solid green;"">Correct!</p>","null","","",""
"","","","","","html-keyboard-response","195","2.0.0","301717","pe4d1dwqoxs","null","<div style=""font-size: 75px;"">+</div>","null","","",""
"","","","","","image-keyboard-response","196","2.0.0","302683","pe4d1dwqoxs","964","stimuli/39_0_R.jpg","j","response","j","true"
"","","","","","html-keyboard-response","197","2.0.0","303188","pe4d1dwqoxs","null","<p style=""border: 5px solid green;"">Correct!</p>","null","","",""
"","","","","","html-keyboard-response","198","2.0.0","304202","pe4d1dwqoxs","null","<div style=""font-size: 75px;"">+</div>","null","","",""
"","","","","","image-keyboard-response","199","2.0.0","306225","pe4d1dwqoxs","2022","stimuli/43_150_R.jpg","f","response","j","false"
"","","","","","html-keyboard-response","200","2.0.0","306728","pe4d1dwqoxs","null","<p style=""border: 5px solid red;"">Incorrect.</p>","null","","",""
"","","","","","html-keyboard-response","201","2.0.0","307739","pe4d1dwqoxs","null","<div style=""font-size: 75px;"">+</div>","null","","",""
"","","","","","image-keyboard-response","202","2.0.0","308468","pe4d1dwqoxs","728","stimuli/13_0.jpg","f","response","f","true"
"","","","","","html-keyboard-response","203","2.0.0","308969","pe4d1dwqoxs","null","<p style=""border: 5px solid green;"">Correct!</p>","null","","",""
"","","","","","html-keyboard-response","204","2.0.0","309985","pe4d1dwqoxs","null","<div style=""font-size: 75px;"">+</div>","null","","",""
"","","","","","image-keyboard-response","205","2.0.0","314423","pe4d1dwqoxs","4436","stimuli/31_150_R.jpg","j","response","j","true"
"","","","","","html-keyboard-response","206","2.0.0","314930","pe4d1dwqoxs","null","<p style=""border: 5px solid green;"">Correct!</p>","null","","",""
"","","","","","html-keyboard-response","207","2.0.0","315947","pe4d1dwqoxs","null","<div style=""font-size: 75px;"">+</div>","null","","",""
"","","","","","image-keyboard-response","208","2.0.0","320125","pe4d1dwqoxs","4177","stimuli/15_150_R.jpg","j","response","j","true"
"","","","","","html-keyboard-response","209","2.0.0","320641","pe4d1dwqoxs","null","<p style=""border: 5px solid green;"">Correct!</p>","null","","",""
"","","","","","html-keyboard-response","210","2.0.0","321652","pe4d1dwqoxs","null","<div style=""font-size: 75px;"">+</div>","null","","",""
"","","","","","image-keyboard-response","211","2.0.0","330441","pe4d1dwqoxs","8788","stimuli/36_150.jpg","f","response","f","true"
"","","","","","html-keyboard-response","212","2.0.0","330944","pe4d1dwqoxs","null","<p style=""border: 5px solid green;"">Correct!</p>","null","","",""
"","","","","","html-keyboard-response","213","2.0.0","331961","pe4d1dwqoxs","null","<div style=""font-size: 75px;"">+</div>","null","","",""
"","","","","","image-keyboard-response","214","2.0.0","334908","pe4d1dwqoxs","2946","stimuli/18_100.jpg","f","response","f","true"
"","","","","","html-keyboard-response","215","2.0.0","335420","pe4d1dwqoxs","null","<p style=""border: 5px solid green;"">Correct!</p>","null","","",""
"","","","","","html-keyboard-response","216","2.0.0","336431","pe4d1dwqoxs","null","<div style=""font-size: 75px;"">+</div>","null","","",""
"","","","","","image-keyboard-response","217","2.0.0","337174","pe4d1dwqoxs","741","stimuli/46_0.jpg","f","response","f","true"
"","","","","","html-keyboard-response","218","2.0.0","337681","pe4d1dwqoxs","null","<p style=""border: 5px solid green;"">Correct!</p>","null","","",""
"","","","","","html-keyboard-response","219","2.0.0","338694","pe4d1dwqoxs","null","<div style=""font-size: 75px;"">+</div>","null","","",""
"","","","","","image-keyboard-response","220","2.0.0","342110","pe4d1dwqoxs","3414","stimuli/26_50_R.jpg","j","response","j","true"
"","","","","","html-keyboard-response","221","2.0.0","342617","pe4d1dwqoxs","null","<p style=""border: 5px solid green;"">Correct!</p>","null","","",""
"","","","","","html-keyboard-response","222","2.0.0","343633","pe4d1dwqoxs","null","<div style=""font-size: 75px;"">+</div>","null","","",""
"","","","","","image-keyboard-response","223","2.0.0","347011","pe4d1dwqoxs","3377","stimuli/26_100_R.jpg","j","response","j","true"
"","","","","","html-keyboard-response","224","2.0.0","347518","pe4d1dwqoxs","null","<p style=""border: 5px solid green;"">Correct!</p>","null","","",""
"","","","","","html-keyboard-response","225","2.0.0","348532","pe4d1dwqoxs","null","<div style=""font-size: 75px;"">+</div>","null","","",""
"","","","","","image-keyboard-response","226","2.0.0","349370","pe4d1dwqoxs","836","stimuli/19_0_R.jpg","f","response","j","false"
"","","","","","html-keyboard-response","227","2.0.0","349877","pe4d1dwqoxs","null","<p style=""border: 5px solid red;"">Incorrect.</p>","null","","",""
"","","","","","html-keyboard-response","228","2.0.0","350878","pe4d1dwqoxs","null","<div style=""font-size: 75px;"">+</div>","null","","",""
"","","","","","image-keyboard-response","229","2.0.0","351741","pe4d1dwqoxs","862","stimuli/42_0.jpg","f","response","f","true"
"","","","","","html-keyboard-response","230","2.0.0","352257","pe4d1dwqoxs","null","<p style=""border: 5px solid green;"">Correct!</p>","null","","",""
"","","","","","html-keyboard-response","231","2.0.0","353268","pe4d1dwqoxs","null","<div style=""font-size: 75px;"">+</div>","null","","",""
"","","","","","image-keyboard-response","232","2.0.0","355244","pe4d1dwqoxs","1975","stimuli/10_50.jpg","f","response","f","true"
"","","","","","html-keyboard-response","233","2.0.0","355759","pe4d1dwqoxs","null","<p style=""border: 5px solid green;"">Correct!</p>","null","","",""
"","","","","","html-keyboard-response","234","2.0.0","356768","pe4d1dwqoxs","null","<div style=""font-size: 75px;"">+</div>","null","","",""
"","","","","","image-keyboard-response","235","2.0.0","358610","pe4d1dwqoxs","1841","stimuli/8_100.jpg","f","response","f","true"
"","","","","","html-keyboard-response","236","2.0.0","359115","pe4d1dwqoxs","null","<p style=""border: 5px solid green;"">Correct!</p>","null","","",""
"","","","","","html-keyboard-response","237","2.0.0","360133","pe4d1dwqoxs","null","<div style=""font-size: 75px;"">+</div>","null","","",""
"","","","","","image-keyboard-response","238","2.0.0","361772","pe4d1dwqoxs","1638","stimuli/38_150_R.jpg","f","response","j","false"
"","","","","","html-keyboard-response","239","2.0.0","362285","pe4d1dwqoxs","null","<p style=""border: 5px solid red;"">Incorrect.</p>","null","","",""
"","","","","","html-keyboard-response","240","2.0.0","363298","pe4d1dwqoxs","null","<div style=""font-size: 75px;"">+</div>","null","","",""
"","","","","","image-keyboard-response","241","2.0.0","367482","pe4d1dwqoxs","4183","stimuli/46_150.jpg","f","response","f","true"
"","","","","","html-keyboard-response","242","2.0.0","367992","pe4d1dwqoxs","null","<p style=""border: 5px solid green;"">Correct!</p>","null","","",""
"","","","","","html-keyboard-response","243","2.0.0","369007","pe4d1dwqoxs","null","<div style=""font-size: 75px;"">+</div>","null","","",""
"","","","","","image-keyboard-response","244","2.0.0","375527","pe4d1dwqoxs","6518","stimuli/43_150.jpg","f","response","f","true"
"","","","","","html-keyboard-response","245","2.0.0","376040","pe4d1dwqoxs","null","<p style=""border: 5px solid green;"">Correct!</p>","null","","",""
"","","","","","html-keyboard-response","246","2.0.0","377055","pe4d1dwqoxs","null","<div style=""font-size: 75px;"">+</div>","null","","",""
"","","","","","image-keyboard-response","247","2.0.0","378086","pe4d1dwqoxs","1029","stimuli/5_0.jpg","f","response","f","true"
"","","","","","html-keyboard-response","248","2.0.0","378600","pe4d1dwqoxs","null","<p style=""border: 5px solid green;"">Correct!</p>","null","","",""
"","","","","","html-keyboard-response","249","2.0.0","379614","pe4d1dwqoxs","null","<div style=""font-size: 75px;"">+</div>","null","","",""
"","","","","","image-keyboard-response","250","2.0.0","389943","pe4d1dwqoxs","10327","stimuli/24_150.jpg","f","response","f","true"
"","","","","","html-keyboard-response","251","2.0.0","390450","pe4d1dwqoxs","null","<p style=""border: 5px solid green;"">Correct!</p>","null","","",""
"","","","","","html-keyboard-response","252","2.0.0","391467","pe4d1dwqoxs","null","<div style=""font-size: 75px;"">+</div>","null","","",""
"","","","","","image-keyboard-response","253","2.0.0","394661","pe4d1dwqoxs","3193","stimuli/44_100_R.jpg","j","response","j","true"
"","","","","","html-keyboard-response","254","2.0.0","395163","pe4d1dwqoxs","null","<p style=""border: 5px solid green;"">Correct!</p>","null","","",""
"","","","","","html-keyboard-response","255","2.0.0","396175","pe4d1dwqoxs","null","<div style=""font-size: 75px;"">+</div>","null","","",""
"","","","","","image-keyboard-response","256","2.0.0","397794","pe4d1dwqoxs","1618","stimuli/27_50.jpg","f","response","f","true"
"","","","","","html-keyboard-response","257","2.0.0","398297","pe4d1dwqoxs","null","<p style=""border: 5px solid green;"">Correct!</p>","null","","",""
"","","","","","html-keyboard-response","258","2.0.0","399301","pe4d1dwqoxs","null","<div style=""font-size: 75px;"">+</div>","null","","",""
"","","","","","image-keyboard-response","259","2.0.0","401239","pe4d1dwqoxs","1937","stimuli/26_50.jpg","f","response","f","true"
"","","","","","html-keyboard-response","260","2.0.0","401750","pe4d1dwqoxs","null","<p style=""border: 5px solid green;"">Correct!</p>","null","","",""
"","","","","","html-keyboard-response","261","2.0.0","402758","pe4d1dwqoxs","null","<div style=""font-size: 75px;"">+</div>","null","","",""
"","","","","","image-keyboard-response","262","2.0.0","403522","pe4d1dwqoxs","763","stimuli/23_0.jpg","f","response","f","true"
"","","","","","html-keyboard-response","263","2.0.0","404028","pe4d1dwqoxs","null","<p style=""border: 5px solid green;"">Correct!</p>","null","","",""
"","","","","","html-keyboard-response","264","2.0.0","405042","pe4d1dwqoxs","null","<div style=""font-size: 75px;"">+</div>","null","","",""
"","","","","","image-keyboard-response","265","2.0.0","406893","pe4d1dwqoxs","1850","stimuli/20_100_R.jpg","j","response","j","true"
"","","","","","html-keyboard-response","266","2.0.0","407399","pe4d1dwqoxs","null","<p style=""border: 5px solid green;"">Correct!</p>","null","","",""
"","","","","","html-keyboard-response","267","2.0.0","408402","pe4d1dwqoxs","null","<div style=""font-size: 75px;"">+</div>","null","","",""
"","","","","","image-keyboard-response","268","2.0.0","410881","pe4d1dwqoxs","2477","stimuli/22_100.jpg","f","response","f","true"
"","","","","","html-keyboard-response","269","2.0.0","411396","pe4d1dwqoxs","null","<p style=""border: 5px solid green;"">Correct!</p>","null","","",""
"","","","","","html-keyboard-response","270","2.0.0","412411","pe4d1dwqoxs","null","<div style=""font-size: 75px;"">+</div>","null","","",""
"","","","","","image-keyboard-response","271","2.0.0","413805","pe4d1dwqoxs","1393","stimuli/44_0_R.jpg","j","response","j","true"
"","","","","","html-keyboard-response","272","2.0.0","414314","pe4d1dwqoxs","null","<p style=""border: 5px solid green;"">Correct!</p>","null","","",""
"","","","","","html-keyboard-response","273","2.0.0","415328","pe4d1dwqoxs","null","<div style=""font-size: 75px;"">+</div>","null","","",""
"","","","","","image-keyboard-response","274","2.0.0","417211","pe4d1dwqoxs","1881","stimuli/44_50_R.jpg","j","response","j","true"
"","","","","","html-keyboard-response","275","2.0.0","417726","pe4d1dwqoxs","null","<p style=""border: 5px solid green;"">Correct!</p>","null","","",""
"","","","","","html-keyboard-response","276","2.0.0","418737","pe4d1dwqoxs","null","<div style=""font-size: 75px;"">+</div>","null","","",""
"","","","","","image-keyboard-response","277","2.0.0","421950","pe4d1dwqoxs","3212","stimuli/22_100_R.jpg","j","response","j","true"
"","","","","","html-keyboard-response","278","2.0.0","422455","pe4d1dwqoxs","null","<p style=""border: 5px solid green;"">Correct!</p>","null","","",""
"","","","","","html-keyboard-response","279","2.0.0","423471","pe4d1dwqoxs","null","<div style=""font-size: 75px;"">+</div>","null","","",""
"","","","","","image-keyboard-response","280","2.0.0","425493","pe4d1dwqoxs","2021","stimuli/44_100.jpg","f","response","f","true"
"","","","","","html-keyboard-response","281","2.0.0","425999","pe4d1dwqoxs","null","<p style=""border: 5px solid green;"">Correct!</p>","null","","",""
"","","","","","html-keyboard-response","282","2.0.0","427014","pe4d1dwqoxs","null","<div style=""font-size: 75px;"">+</div>","null","","",""
"","","","","","image-keyboard-response","283","2.0.0","428607","pe4d1dwqoxs","1591","stimuli/8_50.jpg","f","response","f","true"
"","","","","","html-keyboard-response","284","2.0.0","429122","pe4d1dwqoxs","null","<p style=""border: 5px solid green;"">Correct!</p>","null","","",""
"","","","","","html-keyboard-response","285","2.0.0","430135","pe4d1dwqoxs","null","<div style=""font-size: 75px;"">+</div>","null","","",""
"","","","","","image-keyboard-response","286","2.0.0","431167","pe4d1dwqoxs","1031","stimuli/22_150_R.jpg","j","response","j","true"
"","","","","","html-keyboard-response","287","2.0.0","431684","pe4d1dwqoxs","null","<p style=""border: 5px solid green;"">Correct!</p>","null","","",""
"","","","","","html-keyboard-response","288","2.0.0","432699","pe4d1dwqoxs","null","<div style=""font-size: 75px;"">+</div>","null","","",""
"","","","","","image-keyboard-response","289","2.0.0","437303","pe4d1dwqoxs","4602","stimuli/48_0_R.jpg","j","response","j","true"
"","","","","","html-keyboard-response","290","2.0.0","437805","pe4d1dwqoxs","null","<p style=""border: 5px solid green;"">Correct!</p>","null","","",""
"","","","","","html-keyboard-response","291","2.0.0","438809","pe4d1dwqoxs","null","<div style=""font-size: 75px;"">+</div>","null","","",""
"","","","","","image-keyboard-response","292","2.0.0","439679","pe4d1dwqoxs","868","stimuli/46_0_R.jpg","j","response","j","true"
"","","","","","html-keyboard-response","293","2.0.0","440196","pe4d1dwqoxs","null","<p style=""border: 5px solid green;"">Correct!</p>","null","","",""
"","","","","","html-keyboard-response","294","2.0.0","442099","pe4d1dwqoxs","1902","<p>Thank you for participating!</p><p>Please press space to answer our survey.</p>"," ","","",""
"","","","","","survey-html-form","295","null","516539","pe4d1dwqoxs","74437","","{""response_1"":""Clear and lively"",""response_2"":""Clear and lively"",""response_3"":""Perfectly clear and lively as real seeing"",""response_4"":""Dim and vague; flat"",""response_5"":""Moderately clear and lively"",""response_6"":""Dim and vague; flat"",""response_7"":""Moderately clear and lively"",""response_8"":""Moderately clear and lively"",""response_9"":""Clear and lively"",""response_10"":""Dim and vague; flat"",""response_11"":""Clear and lively"",""response_12"":""Clear and lively"",""response_13"":""Clear and lively"",""response_14"":""Moderately clear and lively"",""response_15"":""Clear and lively"",""response_16"":""Clear and lively""}","","",""
"","","","","","survey-html-form","296","null","554306","pe4d1dwqoxs","37764","","{""age"":""19"",""gender"":""male"",""education"":""some-college"",""handedness"":""right"",""vision"":""normal"",""technical_difficulties"":"""",""knowledge_check"":""Spatial cognition, some sort of 3d testing""}","","",""
