"success","timeout","failed_images","failed_audio","failed_video","trial_type","trial_index","plugin_version","time_elapsed","random_id","rt","stimulus","response","task","correct_response","correct"
"true","false","[]","[]","[]","preload","0","2.0.0","10425","pelerdu4wf2","","","","","",""
"true","","","","","fullscreen","1","2.0.0","29201","pelerdu4wf2","17772","","","","",""
"","","","","","html-keyboard-response","2","2.0.0","31008","pelerdu4wf2","1801","Welcome to the experiment. Press any key to begin.","b","","",""
"","","","","","survey-text","3","2.0.0","32953","pelerdu4wf2","1924","","{""participant_id"":""otter""}","","",""
"","","","","","html-keyboard-response","4","2.0.0","38418","pelerdu4wf2","5463","
        <p>Welcome to the experiment.</p>
        <p>In this task, you will see pairs of images.</p>
        <p>Your job is to determine whether the image on the right is a rotated version of the image on the left.</p>
        <p>Press the <strong>F</strong> key if the images are the same.</p>
        <p>Press the <strong>J</strong> key if the images are different.</p>
        <p>Press any key to begin.</p>
    ","n","","",""
"","","","","","html-keyboard-response","5","2.0.0","39423","pelerdu4wf2","null","<div style=""font-size: 75px;"">+</div>","null","","",""
"","","","","","image-keyboard-response","6","2.0.0","42646","pelerdu4wf2","3212","stimuli/42_150.jpg","f","response","f","true"
"","","","","","html-keyboard-response","7","2.0.0","43150","pelerdu4wf2","null","<p style=""border: 5px solid green;"">Correct!</p>","null","","",""
"","","","","","html-keyboard-response","8","2.0.0","44155","pelerdu4wf2","null","<div style=""font-size: 75px;"">+</div>","null","","",""
"","","","","","image-keyboard-response","9","2.0.0","46409","pelerdu4wf2","2244","stimuli/26_150.jpg","f","response","f","true"
"","","","","","html-keyboard-response","10","2.0.0","46912","pelerdu4wf2","null","<p style=""border: 5px solid green;"">Correct!</p>","null","","",""
"","","","","","html-keyboard-response","11","2.0.0","47916","pelerdu4wf2","null","<div style=""font-size: 75px;"">+</div>","null","","",""
"","","","","","image-keyboard-response","12","2.0.0","50651","pelerdu4wf2","2724","stimuli/24_0.jpg","f","response","f","true"
"","","","","","html-keyboard-response","13","2.0.0","51155","pelerdu4wf2","null","<p style=""border: 5px solid green;"">Correct!</p>","null","","",""
"","","","","","html-keyboard-response","14","2.0.0","52157","pelerdu4wf2","null","<div style=""font-size: 75px;"">+</div>","null","","",""
"","","","","","image-keyboard-response","15","2.0.0","53177","pelerdu4wf2","1009","stimuli/10_150.jpg","j","response","f","false"
"","","","","","html-keyboard-response","16","2.0.0","53680","pelerdu4wf2","null","<p style=""border: 5px solid red;"">Incorrect.</p>","null","","",""
"","","","","","html-keyboard-response","17","2.0.0","54682","pelerdu4wf2","null","<div style=""font-size: 75px;"">+</div>","null","","",""
"","","","","","image-keyboard-response","18","2.0.0","56017","pelerdu4wf2","1325","stimuli/2_150_R.jpg","f","response","j","false"
"","","","","","html-keyboard-response","19","2.0.0","56521","pelerdu4wf2","null","<p style=""border: 5px solid red;"">Incorrect.</p>","null","","",""
"","","","","","html-keyboard-response","20","2.0.0","57524","pelerdu4wf2","null","<div style=""font-size: 75px;"">+</div>","null","","",""
"","","","","","image-keyboard-response","21","2.0.0","59714","pelerdu4wf2","2179","stimuli/1_0.jpg","f","response","f","true"
"","","","","","html-keyboard-response","22","2.0.0","60217","pelerdu4wf2","null","<p style=""border: 5px solid green;"">Correct!</p>","null","","",""
"","","","","","html-keyboard-response","23","2.0.0","61221","pelerdu4wf2","null","<div style=""font-size: 75px;"">+</div>","null","","",""
"","","","","","image-keyboard-response","24","2.0.0","62319","pelerdu4wf2","1088","stimuli/3_0_R.jpg","j","response","j","true"
"","","","","","html-keyboard-response","25","2.0.0","62822","pelerdu4wf2","null","<p style=""border: 5px solid green;"">Correct!</p>","null","","",""
"","","","","","html-keyboard-response","26","2.0.0","63826","pelerdu4wf2","null","<div style=""font-size: 75px;"">+</div>","null","","",""
"","","","","","image-keyboard-response","27","2.0.0","65114","pelerdu4wf2","1278","stimuli/16_150_R.jpg","j","response","j","true"
"","","","","","html-keyboard-response","28","2.0.0","65619","pelerdu4wf2","null","<p style=""border: 5px solid green;"">Correct!</p>","null","","",""
"","","","","","html-keyboard-response","29","2.0.0","66621","pelerdu4wf2","null","<div style=""font-size: 75px;"">+</div>","null","","",""
"","","","","","image-keyboard-response","30","2.0.0","68134","pelerdu4wf2","1503","stimuli/30_50.jpg","f","response","f","true"
"","","","","","html-keyboard-response","31","2.0.0","68638","pelerdu4wf2","null","<p style=""border: 5px solid green;"">Correct!</p>","null","","",""
"","","","","","html-keyboard-response","32","2.0.0","69642","pelerdu4wf2","null","<div style=""font-size: 75px;"">+</div>","null","","",""
"","","","","","image-keyboard-response","33","2.0.0","70996","pelerdu4wf2","1345","stimuli/9_0_R.jpg","j","response","j","true"
"","","","","","html-keyboard-response","34","2.0.0","71501","pelerdu4wf2","null","<p style=""border: 5px solid green;"">Correct!</p>","null","","",""
"","","","","","html-keyboard-response","35","2.0.0","72505","pelerdu4wf2","null","<div style=""font-size: 75px;"">+</div>","null","","",""
"","","","","","image-keyboard-response","36","2.0.0","75442","pelerdu4wf2","2921","stimuli/17_100.jpg","f","response","f","true"
"","","","","","html-keyboard-response","37","2.0.0","75946","pelerdu4wf2","null","<p style=""border: 5px solid green;"">Correct!</p>","null","","",""
"","","","","","html-keyboard-response","38","2.0.0","76951","pelerdu4wf2","null","<div style=""font-size: 75px;"">+</div>","null","","",""
"","","","","","image-keyboard-response","39","2.0.0","78150","pelerdu4wf2","1189","stimuli/33_100.jpg","f","response","f","true"
"","","","","","html-keyboard-response","40","2.0.0","78654","pelerdu4wf2","null","<p style=""border: 5px solid green;"">Correct!</p>","null","","",""
"","","","","","html-keyboard-response","41","2.0.0","79657","pelerdu4wf2","null","<div style=""font-size: 75px;"">+</div>","null","","",""
"","","","","","image-keyboard-response","42","2.0.0","80393","pelerdu4wf2","725","stimuli/40_150.jpg","j","response","f","false"
"","","","","","html-keyboard-response","43","2.0.0","80896","pelerdu4wf2","null","<p style=""border: 5px solid red;"">Incorrect.</p>","null","","",""
"","","","","","html-keyboard-response","44","2.0.0","81900","pelerdu4wf2","null","<div style=""font-size: 75px;"">+</div>","null","","",""
"","","","","","image-keyboard-response","45","2.0.0","82817","pelerdu4wf2","906","stimuli/29_50.jpg","j","response","f","false"
"","","","","","html-keyboard-response","46","2.0.0","83322","pelerdu4wf2","null","<p style=""border: 5px solid red;"">Incorrect.</p>","null","","",""
"","","","","","html-keyboard-response","47","2.0.0","84324","pelerdu4wf2","null","<div style=""font-size: 75px;"">+</div>","null","","",""
"","","","","","image-keyboard-response","48","2.0.0","84992","pelerdu4wf2","657","stimuli/29_0.jpg","f","response","f","true"
"","","","","","html-keyboard-response","49","2.0.0","85495","pelerdu4wf2","null","<p style=""border: 5px solid green;"">Correct!</p>","null","","",""
"","","","","","html-keyboard-response","50","2.0.0","86498","pelerdu4wf2","null","<div style=""font-size: 75px;"">+</div>","null","","",""
"","","","","","image-keyboard-response","51","2.0.0","87293","pelerdu4wf2","785","stimuli/9_100.jpg","f","response","f","true"
"","","","","","html-keyboard-response","52","2.0.0","87796","pelerdu4wf2","null","<p style=""border: 5px solid green;"">Correct!</p>","null","","",""
"","","","","","html-keyboard-response","53","2.0.0","88799","pelerdu4wf2","null","<div style=""font-size: 75px;"">+</div>","null","","",""
"","","","","","image-keyboard-response","54","2.0.0","89930","pelerdu4wf2","1120","stimuli/40_100.jpg","j","response","f","false"
"","","","","","html-keyboard-response","55","2.0.0","90434","pelerdu4wf2","null","<p style=""border: 5px solid red;"">Incorrect.</p>","null","","",""
"","","","","","html-keyboard-response","56","2.0.0","91437","pelerdu4wf2","null","<div style=""font-size: 75px;"">+</div>","null","","",""
"","","","","","image-keyboard-response","57","2.0.0","92652","pelerdu4wf2","1204","stimuli/35_50.jpg","f","response","f","true"
"","","","","","html-keyboard-response","58","2.0.0","93155","pelerdu4wf2","null","<p style=""border: 5px solid green;"">Correct!</p>","null","","",""
"","","","","","html-keyboard-response","59","2.0.0","94159","pelerdu4wf2","null","<div style=""font-size: 75px;"">+</div>","null","","",""
"","","","","","image-keyboard-response","60","2.0.0","95137","pelerdu4wf2","968","stimuli/4_100.jpg","j","response","f","false"
"","","","","","html-keyboard-response","61","2.0.0","95641","pelerdu4wf2","null","<p style=""border: 5px solid red;"">Incorrect.</p>","null","","",""
"","","","","","html-keyboard-response","62","2.0.0","96644","pelerdu4wf2","null","<div style=""font-size: 75px;"">+</div>","null","","",""
"","","","","","image-keyboard-response","63","2.0.0","97299","pelerdu4wf2","646","stimuli/7_50.jpg","f","response","f","true"
"","","","","","html-keyboard-response","64","2.0.0","97802","pelerdu4wf2","null","<p style=""border: 5px solid green;"">Correct!</p>","null","","",""
"","","","","","html-keyboard-response","65","2.0.0","98805","pelerdu4wf2","null","<div style=""font-size: 75px;"">+</div>","null","","",""
"","","","","","image-keyboard-response","66","2.0.0","100065","pelerdu4wf2","1250","stimuli/7_150.jpg","j","response","f","false"
"","","","","","html-keyboard-response","67","2.0.0","100569","pelerdu4wf2","null","<p style=""border: 5px solid red;"">Incorrect.</p>","null","","",""
"","","","","","html-keyboard-response","68","2.0.0","101572","pelerdu4wf2","null","<div style=""font-size: 75px;"">+</div>","null","","",""
"","","","","","image-keyboard-response","69","2.0.0","102052","pelerdu4wf2","471","stimuli/2_150.jpg","f","response","f","true"
"","","","","","html-keyboard-response","70","2.0.0","102556","pelerdu4wf2","null","<p style=""border: 5px solid green;"">Correct!</p>","null","","",""
"","","","","","html-keyboard-response","71","2.0.0","103560","pelerdu4wf2","null","<div style=""font-size: 75px;"">+</div>","null","","",""
"","","","","","image-keyboard-response","72","2.0.0","103840","pelerdu4wf2","270","stimuli/12_0_R.jpg","f","response","j","false"
"","","","","","html-keyboard-response","73","2.0.0","104343","pelerdu4wf2","null","<p style=""border: 5px solid red;"">Incorrect.</p>","null","","",""
"","","","","","html-keyboard-response","74","2.0.0","105347","pelerdu4wf2","null","<div style=""font-size: 75px;"">+</div>","null","","",""
"","","","","","image-keyboard-response","75","2.0.0","107350","pelerdu4wf2","1994","stimuli/48_50_R.jpg","j","response","j","true"
"","","","","","html-keyboard-response","76","2.0.0","107854","pelerdu4wf2","null","<p style=""border: 5px solid green;"">Correct!</p>","null","","",""
"","","","","","html-keyboard-response","77","2.0.0","108864","pelerdu4wf2","null","<div style=""font-size: 75px;"">+</div>","null","","",""
"","","","","","image-keyboard-response","78","2.0.0","112468","pelerdu4wf2","3595","stimuli/25_150_R.jpg","f","response","j","false"
"","","","","","html-keyboard-response","79","2.0.0","112973","pelerdu4wf2","null","<p style=""border: 5px solid red;"">Incorrect.</p>","null","","",""
"","","","","","html-keyboard-response","80","2.0.0","113977","pelerdu4wf2","null","<div style=""font-size: 75px;"">+</div>","null","","",""
"","","","","","image-keyboard-response","81","2.0.0","115414","pelerdu4wf2","1426","stimuli/23_0_R.jpg","f","response","j","false"
"","","","","","html-keyboard-response","82","2.0.0","115918","pelerdu4wf2","null","<p style=""border: 5px solid red;"">Incorrect.</p>","null","","",""
"","","","","","html-keyboard-response","83","2.0.0","116921","pelerdu4wf2","null","<div style=""font-size: 75px;"">+</div>","null","","",""
"","","","","","image-keyboard-response","84","2.0.0","117667","pelerdu4wf2","737","stimuli/17_50_R.jpg","j","response","j","true"
"","","","","","html-keyboard-response","85","2.0.0","118170","pelerdu4wf2","null","<p style=""border: 5px solid green;"">Correct!</p>","null","","",""
"","","","","","html-keyboard-response","86","2.0.0","119173","pelerdu4wf2","null","<div style=""font-size: 75px;"">+</div>","null","","",""
"","","","","","image-keyboard-response","87","2.0.0","120316","pelerdu4wf2","1134","stimuli/3_150_R.jpg","f","response","j","false"
"","","","","","html-keyboard-response","88","2.0.0","120819","pelerdu4wf2","null","<p style=""border: 5px solid red;"">Incorrect.</p>","null","","",""
"","","","","","html-keyboard-response","89","2.0.0","121822","pelerdu4wf2","null","<div style=""font-size: 75px;"">+</div>","null","","",""
"","","","","","image-keyboard-response","90","2.0.0","122556","pelerdu4wf2","724","stimuli/36_50_R.jpg","j","response","j","true"
"","","","","","html-keyboard-response","91","2.0.0","123059","pelerdu4wf2","null","<p style=""border: 5px solid green;"">Correct!</p>","null","","",""
"","","","","","html-keyboard-response","92","2.0.0","124062","pelerdu4wf2","null","<div style=""font-size: 75px;"">+</div>","null","","",""
"","","","","","image-keyboard-response","93","2.0.0","126603","pelerdu4wf2","2531","stimuli/20_150.jpg","f","response","f","true"
"","","","","","html-keyboard-response","94","2.0.0","127107","pelerdu4wf2","null","<p style=""border: 5px solid green;"">Correct!</p>","null","","",""
"","","","","","html-keyboard-response","95","2.0.0","128110","pelerdu4wf2","null","<div style=""font-size: 75px;"">+</div>","null","","",""
"","","","","","image-keyboard-response","96","2.0.0","129598","pelerdu4wf2","1478","stimuli/3_150.jpg","j","response","f","false"
"","","","","","html-keyboard-response","97","2.0.0","130102","pelerdu4wf2","null","<p style=""border: 5px solid red;"">Incorrect.</p>","null","","",""
"","","","","","html-keyboard-response","98","2.0.0","131105","pelerdu4wf2","null","<div style=""font-size: 75px;"">+</div>","null","","",""
"","","","","","image-keyboard-response","99","2.0.0","132235","pelerdu4wf2","1119","stimuli/21_150.jpg","f","response","f","true"
"","","","","","html-keyboard-response","100","2.0.0","132738","pelerdu4wf2","null","<p style=""border: 5px solid green;"">Correct!</p>","null","","",""
"","","","","","html-keyboard-response","101","2.0.0","133741","pelerdu4wf2","null","<div style=""font-size: 75px;"">+</div>","null","","",""
"","","","","","image-keyboard-response","102","2.0.0","134629","pelerdu4wf2","878","stimuli/25_0_R.jpg","f","response","j","false"
"","","","","","html-keyboard-response","103","2.0.0","135133","pelerdu4wf2","null","<p style=""border: 5px solid red;"">Incorrect.</p>","null","","",""
"","","","","","html-keyboard-response","104","2.0.0","136136","pelerdu4wf2","null","<div style=""font-size: 75px;"">+</div>","null","","",""
"","","","","","image-keyboard-response","105","2.0.0","137002","pelerdu4wf2","856","stimuli/15_100_R.jpg","f","response","j","false"
"","","","","","html-keyboard-response","106","2.0.0","137506","pelerdu4wf2","null","<p style=""border: 5px solid red;"">Incorrect.</p>","null","","",""
"","","","","","html-keyboard-response","107","2.0.0","138509","pelerdu4wf2","null","<div style=""font-size: 75px;"">+</div>","null","","",""
"","","","","","image-keyboard-response","108","2.0.0","139547","pelerdu4wf2","1028","stimuli/42_100_R.jpg","f","response","j","false"
"","","","","","html-keyboard-response","109","2.0.0","140050","pelerdu4wf2","null","<p style=""border: 5px solid red;"">Incorrect.</p>","null","","",""
"","","","","","html-keyboard-response","110","2.0.0","141053","pelerdu4wf2","null","<div style=""font-size: 75px;"">+</div>","null","","",""
"","","","","","image-keyboard-response","111","2.0.0","142090","pelerdu4wf2","1027","stimuli/32_150_R.jpg","f","response","j","false"
"","","","","","html-keyboard-response","112","2.0.0","142594","pelerdu4wf2","null","<p style=""border: 5px solid red;"">Incorrect.</p>","null","","",""
"","","","","","html-keyboard-response","113","2.0.0","143597","pelerdu4wf2","null","<div style=""font-size: 75px;"">+</div>","null","","",""
"","","","","","image-keyboard-response","114","2.0.0","144387","pelerdu4wf2","780","stimuli/21_150_R.jpg","j","response","j","true"
"","","","","","html-keyboard-response","115","2.0.0","144890","pelerdu4wf2","null","<p style=""border: 5px solid green;"">Correct!</p>","null","","",""
"","","","","","html-keyboard-response","116","2.0.0","145894","pelerdu4wf2","null","<div style=""font-size: 75px;"">+</div>","null","","",""
"","","","","","image-keyboard-response","117","2.0.0","147272","pelerdu4wf2","1367","stimuli/13_0.jpg","f","response","f","true"
"","","","","","html-keyboard-response","118","2.0.0","147776","pelerdu4wf2","null","<p style=""border: 5px solid green;"">Correct!</p>","null","","",""
"","","","","","html-keyboard-response","119","2.0.0","148779","pelerdu4wf2","null","<div style=""font-size: 75px;"">+</div>","null","","",""
"","","","","","image-keyboard-response","120","2.0.0","150799","pelerdu4wf2","2009","stimuli/37_100.jpg","f","response","f","true"
"","","","","","html-keyboard-response","121","2.0.0","151302","pelerdu4wf2","null","<p style=""border: 5px solid green;"">Correct!</p>","null","","",""
"","","","","","html-keyboard-response","122","2.0.0","152306","pelerdu4wf2","null","<div style=""font-size: 75px;"">+</div>","null","","",""
"","","","","","image-keyboard-response","123","2.0.0","153338","pelerdu4wf2","1022","stimuli/5_50.jpg","f","response","f","true"
"","","","","","html-keyboard-response","124","2.0.0","153842","pelerdu4wf2","null","<p style=""border: 5px solid green;"">Correct!</p>","null","","",""
"","","","","","html-keyboard-response","125","2.0.0","154845","pelerdu4wf2","null","<div style=""font-size: 75px;"">+</div>","null","","",""
"","","","","","image-keyboard-response","126","2.0.0","155680","pelerdu4wf2","825","stimuli/12_0.jpg","f","response","f","true"
"","","","","","html-keyboard-response","127","2.0.0","156183","pelerdu4wf2","null","<p style=""border: 5px solid green;"">Correct!</p>","null","","",""
"","","","","","html-keyboard-response","128","2.0.0","157186","pelerdu4wf2","null","<div style=""font-size: 75px;"">+</div>","null","","",""
"","","","","","image-keyboard-response","129","2.0.0","157943","pelerdu4wf2","747","stimuli/9_50_R.jpg","f","response","j","false"
"","","","","","html-keyboard-response","130","2.0.0","158446","pelerdu4wf2","null","<p style=""border: 5px solid red;"">Incorrect.</p>","null","","",""
"","","","","","html-keyboard-response","131","2.0.0","159449","pelerdu4wf2","null","<div style=""font-size: 75px;"">+</div>","null","","",""
"","","","","","image-keyboard-response","132","2.0.0","160228","pelerdu4wf2","768","stimuli/3_50.jpg","j","response","f","false"
"","","","","","html-keyboard-response","133","2.0.0","160731","pelerdu4wf2","null","<p style=""border: 5px solid red;"">Incorrect.</p>","null","","",""
"","","","","","html-keyboard-response","134","2.0.0","161734","pelerdu4wf2","null","<div style=""font-size: 75px;"">+</div>","null","","",""
"","","","","","image-keyboard-response","135","2.0.0","163207","pelerdu4wf2","1463","stimuli/38_50_R.jpg","f","response","j","false"
"","","","","","html-keyboard-response","136","2.0.0","163710","pelerdu4wf2","null","<p style=""border: 5px solid red;"">Incorrect.</p>","null","","",""
"","","","","","html-keyboard-response","137","2.0.0","164713","pelerdu4wf2","null","<div style=""font-size: 75px;"">+</div>","null","","",""
"","","","","","image-keyboard-response","138","2.0.0","168527","pelerdu4wf2","3804","stimuli/21_50_R.jpg","j","response","j","true"
"","","","","","html-keyboard-response","139","2.0.0","169030","pelerdu4wf2","null","<p style=""border: 5px solid green;"">Correct!</p>","null","","",""
"","","","","","html-keyboard-response","140","2.0.0","170033","pelerdu4wf2","null","<div style=""font-size: 75px;"">+</div>","null","","",""
"","","","","","image-keyboard-response","141","2.0.0","171120","pelerdu4wf2","1078","stimuli/39_150_R.jpg","j","response","j","true"
"","","","","","html-keyboard-response","142","2.0.0","171624","pelerdu4wf2","null","<p style=""border: 5px solid green;"">Correct!</p>","null","","",""
"","","","","","html-keyboard-response","143","2.0.0","172626","pelerdu4wf2","null","<div style=""font-size: 75px;"">+</div>","null","","",""
"","","","","","image-keyboard-response","144","2.0.0","173350","pelerdu4wf2","714","stimuli/9_150_R.jpg","f","response","j","false"
"","","","","","html-keyboard-response","145","2.0.0","173853","pelerdu4wf2","null","<p style=""border: 5px solid red;"">Incorrect.</p>","null","","",""
"","","","","","html-keyboard-response","146","2.0.0","174856","pelerdu4wf2","null","<div style=""font-size: 75px;"">+</div>","null","","",""
"","","","","","image-keyboard-response","147","2.0.0","175966","pelerdu4wf2","1099","stimuli/36_50.jpg","j","response","f","false"
"","","","","","html-keyboard-response","148","2.0.0","176469","pelerdu4wf2","null","<p style=""border: 5px solid red;"">Incorrect.</p>","null","","",""
"","","","","","html-keyboard-response","149","2.0.0","206472","pelerdu4wf2","null","<p> Take a break! Experiment continues in 30 seconds . </p>","null","","",""
"","","","","","html-keyboard-response","150","2.0.0","207474","pelerdu4wf2","null","<div style=""font-size: 75px;"">+</div>","null","","",""
"","","","","","image-keyboard-response","151","2.0.0","208364","pelerdu4wf2","882","stimuli/16_0_R.jpg","f","response","j","false"
"","","","","","html-keyboard-response","152","2.0.0","208868","pelerdu4wf2","null","<p style=""border: 5px solid red;"">Incorrect.</p>","null","","",""
"","","","","","html-keyboard-response","153","2.0.0","209872","pelerdu4wf2","null","<div style=""font-size: 75px;"">+</div>","null","","",""
"","","","","","image-keyboard-response","154","2.0.0","210518","pelerdu4wf2","637","stimuli/23_150_R.jpg","j","response","j","true"
"","","","","","html-keyboard-response","155","2.0.0","211022","pelerdu4wf2","null","<p style=""border: 5px solid green;"">Correct!</p>","null","","",""
"","","","","","html-keyboard-response","156","2.0.0","212025","pelerdu4wf2","null","<div style=""font-size: 75px;"">+</div>","null","","",""
"","","","","","image-keyboard-response","157","2.0.0","212738","pelerdu4wf2","703","stimuli/47_0.jpg","j","response","f","false"
"","","","","","html-keyboard-response","158","2.0.0","213241","pelerdu4wf2","null","<p style=""border: 5px solid red;"">Incorrect.</p>","null","","",""
"","","","","","html-keyboard-response","159","2.0.0","214244","pelerdu4wf2","null","<div style=""font-size: 75px;"">+</div>","null","","",""
"","","","","","image-keyboard-response","160","2.0.0","214876","pelerdu4wf2","623","stimuli/47_150_R.jpg","f","response","j","false"
"","","","","","html-keyboard-response","161","2.0.0","215379","pelerdu4wf2","null","<p style=""border: 5px solid red;"">Incorrect.</p>","null","","",""
"","","","","","html-keyboard-response","162","2.0.0","216382","pelerdu4wf2","null","<div style=""font-size: 75px;"">+</div>","null","","",""
"","","","","","image-keyboard-response","163","2.0.0","219097","pelerdu4wf2","2707","stimuli/8_50_R.jpg","j","response","j","true"
"","","","","","html-keyboard-response","164","2.0.0","219600","pelerdu4wf2","null","<p style=""border: 5px solid green;"">Correct!</p>","null","","",""
"","","","","","html-keyboard-response","165","2.0.0","220603","pelerdu4wf2","null","<div style=""font-size: 75px;"">+</div>","null","","",""
"","","","","","image-keyboard-response","166","2.0.0","222027","pelerdu4wf2","1415","stimuli/41_0_R.jpg","j","response","j","true"
"","","","","","html-keyboard-response","167","2.0.0","222530","pelerdu4wf2","null","<p style=""border: 5px solid green;"">Correct!</p>","null","","",""
"","","","","","html-keyboard-response","168","2.0.0","223532","pelerdu4wf2","null","<div style=""font-size: 75px;"">+</div>","null","","",""
"","","","","","image-keyboard-response","169","2.0.0","224278","pelerdu4wf2","735","stimuli/28_0.jpg","f","response","f","true"
"","","","","","html-keyboard-response","170","2.0.0","224780","pelerdu4wf2","null","<p style=""border: 5px solid green;"">Correct!</p>","null","","",""
"","","","","","html-keyboard-response","171","2.0.0","225782","pelerdu4wf2","null","<div style=""font-size: 75px;"">+</div>","null","","",""
"","","","","","image-keyboard-response","172","2.0.0","226228","pelerdu4wf2","436","stimuli/7_150_R.jpg","f","response","j","false"
"","","","","","html-keyboard-response","173","2.0.0","226731","pelerdu4wf2","null","<p style=""border: 5px solid red;"">Incorrect.</p>","null","","",""
"","","","","","html-keyboard-response","174","2.0.0","227734","pelerdu4wf2","null","<div style=""font-size: 75px;"">+</div>","null","","",""
"","","","","","image-keyboard-response","175","2.0.0","228091","pelerdu4wf2","347","stimuli/37_0.jpg","j","response","f","false"
"","","","","","html-keyboard-response","176","2.0.0","228594","pelerdu4wf2","null","<p style=""border: 5px solid red;"">Incorrect.</p>","null","","",""
"","","","","","html-keyboard-response","177","2.0.0","229596","pelerdu4wf2","null","<div style=""font-size: 75px;"">+</div>","null","","",""
"","","","","","image-keyboard-response","178","2.0.0","230108","pelerdu4wf2","501","stimuli/19_50_R.jpg","f","response","j","false"
"","","","","","html-keyboard-response","179","2.0.0","230611","pelerdu4wf2","null","<p style=""border: 5px solid red;"">Incorrect.</p>","null","","",""
"","","","","","html-keyboard-response","180","2.0.0","231614","pelerdu4wf2","null","<div style=""font-size: 75px;"">+</div>","null","","",""
"","","","","","image-keyboard-response","181","2.0.0","231929","pelerdu4wf2","305","stimuli/31_100.jpg","j","response","f","false"
"","","","","","html-keyboard-response","182","2.0.0","232432","pelerdu4wf2","null","<p style=""border: 5px solid red;"">Incorrect.</p>","null","","",""
"","","","","","html-keyboard-response","183","2.0.0","233435","pelerdu4wf2","null","<div style=""font-size: 75px;"">+</div>","null","","",""
"","","","","","image-keyboard-response","184","2.0.0","233689","pelerdu4wf2","244","stimuli/30_100_R.jpg","f","response","j","false"
"","","","","","html-keyboard-response","185","2.0.0","234192","pelerdu4wf2","null","<p style=""border: 5px solid red;"">Incorrect.</p>","null","","",""
"","","","","","html-keyboard-response","186","2.0.0","235195","pelerdu4wf2","null","<div style=""font-size: 75px;"">+</div>","null","","",""
"","","","","","image-keyboard-response","187","2.0.0","235534","pelerdu4wf2","331","stimuli/16_100_R.jpg","j","response","j","true"
"","","","","","html-keyboard-response","188","2.0.0","236037","pelerdu4wf2","null","<p style=""border: 5px solid green;"">Correct!</p>","null","","",""
"","","","","","html-keyboard-response","189","2.0.0","237040","pelerdu4wf2","null","<div style=""font-size: 75px;"">+</div>","null","","",""
"","","","","","image-keyboard-response","190","2.0.0","237591","pelerdu4wf2","540","stimuli/36_0_R.jpg","j","response","j","true"
"","","","","","html-keyboard-response","191","2.0.0","238095","pelerdu4wf2","null","<p style=""border: 5px solid green;"">Correct!</p>","null","","",""
"","","","","","html-keyboard-response","192","2.0.0","239099","pelerdu4wf2","null","<div style=""font-size: 75px;"">+</div>","null","","",""
"","","","","","image-keyboard-response","193","2.0.0","240729","pelerdu4wf2","1621","stimuli/13_100.jpg","j","response","f","false"
"","","","","","html-keyboard-response","194","2.0.0","241232","pelerdu4wf2","null","<p style=""border: 5px solid red;"">Incorrect.</p>","null","","",""
"","","","","","html-keyboard-response","195","2.0.0","242235","pelerdu4wf2","null","<div style=""font-size: 75px;"">+</div>","null","","",""
"","","","","","image-keyboard-response","196","2.0.0","243036","pelerdu4wf2","793","stimuli/42_100.jpg","j","response","f","false"
"","","","","","html-keyboard-response","197","2.0.0","243540","pelerdu4wf2","null","<p style=""border: 5px solid red;"">Incorrect.</p>","null","","",""
"","","","","","html-keyboard-response","198","2.0.0","244543","pelerdu4wf2","null","<div style=""font-size: 75px;"">+</div>","null","","",""
"","","","","","image-keyboard-response","199","2.0.0","245376","pelerdu4wf2","824","stimuli/27_0.jpg","f","response","f","true"
"","","","","","html-keyboard-response","200","2.0.0","245879","pelerdu4wf2","null","<p style=""border: 5px solid green;"">Correct!</p>","null","","",""
"","","","","","html-keyboard-response","201","2.0.0","246881","pelerdu4wf2","null","<div style=""font-size: 75px;"">+</div>","null","","",""
"","","","","","image-keyboard-response","202","2.0.0","248134","pelerdu4wf2","1242","stimuli/46_150_R.jpg","j","response","j","true"
"","","","","","html-keyboard-response","203","2.0.0","248637","pelerdu4wf2","null","<p style=""border: 5px solid green;"">Correct!</p>","null","","",""
"","","","","","html-keyboard-response","204","2.0.0","249640","pelerdu4wf2","null","<div style=""font-size: 75px;"">+</div>","null","","",""
"","","","","","image-keyboard-response","205","2.0.0","250913","pelerdu4wf2","1263","stimuli/39_50.jpg","f","response","f","true"
"","","","","","html-keyboard-response","206","2.0.0","251416","pelerdu4wf2","null","<p style=""border: 5px solid green;"">Correct!</p>","null","","",""
"","","","","","html-keyboard-response","207","2.0.0","252419","pelerdu4wf2","null","<div style=""font-size: 75px;"">+</div>","null","","",""
"","","","","","image-keyboard-response","208","2.0.0","253614","pelerdu4wf2","1186","stimuli/10_0_R.jpg","j","response","j","true"
"","","","","","html-keyboard-response","209","2.0.0","254117","pelerdu4wf2","null","<p style=""border: 5px solid green;"">Correct!</p>","null","","",""
"","","","","","html-keyboard-response","210","2.0.0","255120","pelerdu4wf2","null","<div style=""font-size: 75px;"">+</div>","null","","",""
"","","","","","image-keyboard-response","211","2.0.0","255974","pelerdu4wf2","844","stimuli/39_0.jpg","f","response","f","true"
"","","","","","html-keyboard-response","212","2.0.0","256477","pelerdu4wf2","null","<p style=""border: 5px solid green;"">Correct!</p>","null","","",""
"","","","","","html-keyboard-response","213","2.0.0","257480","pelerdu4wf2","null","<div style=""font-size: 75px;"">+</div>","null","","",""
"","","","","","image-keyboard-response","214","2.0.0","258410","pelerdu4wf2","919","stimuli/47_50_R.jpg","f","response","j","false"
"","","","","","html-keyboard-response","215","2.0.0","258912","pelerdu4wf2","null","<p style=""border: 5px solid red;"">Incorrect.</p>","null","","",""
"","","","","","html-keyboard-response","216","2.0.0","259914","pelerdu4wf2","null","<div style=""font-size: 75px;"">+</div>","null","","",""
"","","","","","image-keyboard-response","217","2.0.0","261074","pelerdu4wf2","1152","stimuli/44_100_R.jpg","f","response","j","false"
"","","","","","html-keyboard-response","218","2.0.0","261577","pelerdu4wf2","null","<p style=""border: 5px solid red;"">Incorrect.</p>","null","","",""
"","","","","","html-keyboard-response","219","2.0.0","262580","pelerdu4wf2","null","<div style=""font-size: 75px;"">+</div>","null","","",""
"","","","","","image-keyboard-response","220","2.0.0","263983","pelerdu4wf2","1395","stimuli/6_100.jpg","j","response","f","false"
"","","","","","html-keyboard-response","221","2.0.0","264486","pelerdu4wf2","null","<p style=""border: 5px solid red;"">Incorrect.</p>","null","","",""
"","","","","","html-keyboard-response","222","2.0.0","265489","pelerdu4wf2","null","<div style=""font-size: 75px;"">+</div>","null","","",""
"","","","","","image-keyboard-response","223","2.0.0","266688","pelerdu4wf2","1190","stimuli/13_50_R.jpg","f","response","j","false"
"","","","","","html-keyboard-response","224","2.0.0","267192","pelerdu4wf2","null","<p style=""border: 5px solid red;"">Incorrect.</p>","null","","",""
"","","","","","html-keyboard-response","225","2.0.0","268195","pelerdu4wf2","null","<div style=""font-size: 75px;"">+</div>","null","","",""
"","","","","","image-keyboard-response","226","2.0.0","269333","pelerdu4wf2","1129","stimuli/2_100_R.jpg","j","response","j","true"
"","","","","","html-keyboard-response","227","2.0.0","269835","pelerdu4wf2","null","<p style=""border: 5px solid green;"">Correct!</p>","null","","",""
"","","","","","html-keyboard-response","228","2.0.0","270838","pelerdu4wf2","null","<div style=""font-size: 75px;"">+</div>","null","","",""
"","","","","","image-keyboard-response","229","2.0.0","272306","pelerdu4wf2","1459","stimuli/32_100_R.jpg","j","response","j","true"
"","","","","","html-keyboard-response","230","2.0.0","272809","pelerdu4wf2","null","<p style=""border: 5px solid green;"">Correct!</p>","null","","",""
"","","","","","html-keyboard-response","231","2.0.0","273812","pelerdu4wf2","null","<div style=""font-size: 75px;"">+</div>","null","","",""
"","","","","","image-keyboard-response","232","2.0.0","274705","pelerdu4wf2","883","stimuli/38_100.jpg","f","response","f","true"
"","","","","","html-keyboard-response","233","2.0.0","275208","pelerdu4wf2","null","<p style=""border: 5px solid green;"">Correct!</p>","null","","",""
"","","","","","html-keyboard-response","234","2.0.0","276212","pelerdu4wf2","null","<div style=""font-size: 75px;"">+</div>","null","","",""
"","","","","","image-keyboard-response","235","2.0.0","277277","pelerdu4wf2","1054","stimuli/48_100_R.jpg","j","response","j","true"
"","","","","","html-keyboard-response","236","2.0.0","277780","pelerdu4wf2","null","<p style=""border: 5px solid green;"">Correct!</p>","null","","",""
"","","","","","html-keyboard-response","237","2.0.0","278783","pelerdu4wf2","null","<div style=""font-size: 75px;"">+</div>","null","","",""
"","","","","","image-keyboard-response","238","2.0.0","279789","pelerdu4wf2","996","stimuli/22_50.jpg","f","response","f","true"
"","","","","","html-keyboard-response","239","2.0.0","280293","pelerdu4wf2","null","<p style=""border: 5px solid green;"">Correct!</p>","null","","",""
"","","","","","html-keyboard-response","240","2.0.0","281295","pelerdu4wf2","null","<div style=""font-size: 75px;"">+</div>","null","","",""
"","","","","","image-keyboard-response","241","2.0.0","282871","pelerdu4wf2","1566","stimuli/17_100_R.jpg","f","response","j","false"
"","","","","","html-keyboard-response","242","2.0.0","283374","pelerdu4wf2","null","<p style=""border: 5px solid red;"">Incorrect.</p>","null","","",""
"","","","","","html-keyboard-response","243","2.0.0","284377","pelerdu4wf2","null","<div style=""font-size: 75px;"">+</div>","null","","",""
"","","","","","image-keyboard-response","244","2.0.0","286482","pelerdu4wf2","2097","stimuli/42_0.jpg","j","response","f","false"
"","","","","","html-keyboard-response","245","2.0.0","286986","pelerdu4wf2","null","<p style=""border: 5px solid red;"">Incorrect.</p>","null","","",""
"","","","","","html-keyboard-response","246","2.0.0","287988","pelerdu4wf2","null","<div style=""font-size: 75px;"">+</div>","null","","",""
"","","","","","image-keyboard-response","247","2.0.0","288411","pelerdu4wf2","413","stimuli/27_0_R.jpg","f","response","j","false"
"","","","","","html-keyboard-response","248","2.0.0","288915","pelerdu4wf2","null","<p style=""border: 5px solid red;"">Incorrect.</p>","null","","",""
"","","","","","html-keyboard-response","249","2.0.0","289918","pelerdu4wf2","null","<div style=""font-size: 75px;"">+</div>","null","","",""
"","","","","","image-keyboard-response","250","2.0.0","290683","pelerdu4wf2","756","stimuli/7_50_R.jpg","f","response","j","false"
"","","","","","html-keyboard-response","251","2.0.0","291186","pelerdu4wf2","null","<p style=""border: 5px solid red;"">Incorrect.</p>","null","","",""
"","","","","","html-keyboard-response","252","2.0.0","292190","pelerdu4wf2","null","<div style=""font-size: 75px;"">+</div>","null","","",""
"","","","","","image-keyboard-response","253","2.0.0","292597","pelerdu4wf2","398","stimuli/32_150.jpg","j","response","f","false"
"","","","","","html-keyboard-response","254","2.0.0","293100","pelerdu4wf2","null","<p style=""border: 5px solid red;"">Incorrect.</p>","null","","",""
"","","","","","html-keyboard-response","255","2.0.0","294103","pelerdu4wf2","null","<div style=""font-size: 75px;"">+</div>","null","","",""
"","","","","","image-keyboard-response","256","2.0.0","294362","pelerdu4wf2","248","stimuli/38_100_R.jpg","f","response","j","false"
"","","","","","html-keyboard-response","257","2.0.0","294866","pelerdu4wf2","null","<p style=""border: 5px solid red;"">Incorrect.</p>","null","","",""
"","","","","","html-keyboard-response","258","2.0.0","295869","pelerdu4wf2","null","<div style=""font-size: 75px;"">+</div>","null","","",""
"","","","","","image-keyboard-response","259","2.0.0","296177","pelerdu4wf2","300","stimuli/44_150.jpg","j","response","f","false"
"","","","","","html-keyboard-response","260","2.0.0","296681","pelerdu4wf2","null","<p style=""border: 5px solid red;"">Incorrect.</p>","null","","",""
"","","","","","html-keyboard-response","261","2.0.0","297683","pelerdu4wf2","null","<div style=""font-size: 75px;"">+</div>","null","","",""
"","","","","","image-keyboard-response","262","2.0.0","297903","pelerdu4wf2","214","stimuli/46_100_R.jpg","f","response","j","false"
"","","","","","html-keyboard-response","263","2.0.0","298406","pelerdu4wf2","null","<p style=""border: 5px solid red;"">Incorrect.</p>","null","","",""
"","","","","","html-keyboard-response","264","2.0.0","299408","pelerdu4wf2","null","<div style=""font-size: 75px;"">+</div>","null","","",""
"","","","","","image-keyboard-response","265","2.0.0","299596","pelerdu4wf2","176","stimuli/6_0_R.jpg","f","response","j","false"
"","","","","","html-keyboard-response","266","2.0.0","300099","pelerdu4wf2","null","<p style=""border: 5px solid red;"">Incorrect.</p>","null","","",""
"","","","","","html-keyboard-response","267","2.0.0","301102","pelerdu4wf2","null","<div style=""font-size: 75px;"">+</div>","null","","",""
"","","","","","image-keyboard-response","268","2.0.0","301324","pelerdu4wf2","213","stimuli/4_50.jpg","j","response","f","false"
"","","","","","html-keyboard-response","269","2.0.0","301827","pelerdu4wf2","null","<p style=""border: 5px solid red;"">Incorrect.</p>","null","","",""
"","","","","","html-keyboard-response","270","2.0.0","302830","pelerdu4wf2","null","<div style=""font-size: 75px;"">+</div>","null","","",""
"","","","","","image-keyboard-response","271","2.0.0","303093","pelerdu4wf2","254","stimuli/23_150.jpg","f","response","f","true"
"","","","","","html-keyboard-response","272","2.0.0","303597","pelerdu4wf2","null","<p style=""border: 5px solid green;"">Correct!</p>","null","","",""
"","","","","","html-keyboard-response","273","2.0.0","304600","pelerdu4wf2","null","<div style=""font-size: 75px;"">+</div>","null","","",""
"","","","","","image-keyboard-response","274","2.0.0","305151","pelerdu4wf2","542","stimuli/6_50.jpg","f","response","f","true"
"","","","","","html-keyboard-response","275","2.0.0","305654","pelerdu4wf2","null","<p style=""border: 5px solid green;"">Correct!</p>","null","","",""
"","","","","","html-keyboard-response","276","2.0.0","306657","pelerdu4wf2","null","<div style=""font-size: 75px;"">+</div>","null","","",""
"","","","","","image-keyboard-response","277","2.0.0","307085","pelerdu4wf2","418","stimuli/16_50_R.jpg","f","response","j","false"
"","","","","","html-keyboard-response","278","2.0.0","307589","pelerdu4wf2","null","<p style=""border: 5px solid red;"">Incorrect.</p>","null","","",""
"","","","","","html-keyboard-response","279","2.0.0","308592","pelerdu4wf2","null","<div style=""font-size: 75px;"">+</div>","null","","",""
"","","","","","image-keyboard-response","280","2.0.0","309172","pelerdu4wf2","571","stimuli/16_0.jpg","f","response","f","true"
"","","","","","html-keyboard-response","281","2.0.0","309676","pelerdu4wf2","null","<p style=""border: 5px solid green;"">Correct!</p>","null","","",""
"","","","","","html-keyboard-response","282","2.0.0","310679","pelerdu4wf2","null","<div style=""font-size: 75px;"">+</div>","null","","",""
"","","","","","image-keyboard-response","283","2.0.0","311642","pelerdu4wf2","953","stimuli/17_0_R.jpg","f","response","j","false"
"","","","","","html-keyboard-response","284","2.0.0","312145","pelerdu4wf2","null","<p style=""border: 5px solid red;"">Incorrect.</p>","null","","",""
"","","","","","html-keyboard-response","285","2.0.0","313148","pelerdu4wf2","null","<div style=""font-size: 75px;"">+</div>","null","","",""
"","","","","","image-keyboard-response","286","2.0.0","313763","pelerdu4wf2","606","stimuli/20_50.jpg","f","response","f","true"
"","","","","","html-keyboard-response","287","2.0.0","314266","pelerdu4wf2","null","<p style=""border: 5px solid green;"">Correct!</p>","null","","",""
"","","","","","html-keyboard-response","288","2.0.0","315269","pelerdu4wf2","null","<div style=""font-size: 75px;"">+</div>","null","","",""
"","","","","","image-keyboard-response","289","2.0.0","316002","pelerdu4wf2","723","stimuli/45_100_R.jpg","f","response","j","false"
"","","","","","html-keyboard-response","290","2.0.0","316505","pelerdu4wf2","null","<p style=""border: 5px solid red;"">Incorrect.</p>","null","","",""
"","","","","","html-keyboard-response","291","2.0.0","317508","pelerdu4wf2","null","<div style=""font-size: 75px;"">+</div>","null","","",""
"","","","","","image-keyboard-response","292","2.0.0","318554","pelerdu4wf2","1037","stimuli/24_100.jpg","j","response","f","false"
"","","","","","html-keyboard-response","293","2.0.0","319057","pelerdu4wf2","null","<p style=""border: 5px solid red;"">Incorrect.</p>","null","","",""
"","","","","","html-keyboard-response","294","2.0.0","320506","pelerdu4wf2","1446","<p>Thank you for participating!</p><p>Please press space to answer our survey.</p>"," ","","",""
"","","","","","survey-html-form","295","null","387328","pelerdu4wf2","66814","","{""response_1"":""Clear and lively"",""response_2"":""Clear and lively"",""response_3"":""Dim and vague; flat"",""response_4"":""Moderately clear and lively"",""response_5"":""Moderately clear and lively"",""response_6"":""Clear and lively"",""response_7"":""Dim and vague; flat"",""response_8"":""Clear and lively"",""response_9"":""Clear and lively"",""response_10"":""Moderately clear and lively"",""response_11"":""Clear and lively"",""response_12"":""Clear and lively"",""response_13"":""Clear and lively"",""response_14"":""Clear and lively"",""response_15"":""Clear and lively"",""response_16"":""Clear and lively""}","","",""
"","","","","","survey-html-form","296","null","418965","pelerdu4wf2","31633","","{""age"":""20"",""gender"":""male"",""education"":""high-school"",""handedness"":""right"",""vision"":""normal"",""technical_difficulties"":""No"",""knowledge_check"":""If we were able to differentiate 3d shapes if they were the same or not""}","","",""
