"success","timeout","failed_images","failed_audio","failed_video","trial_type","trial_index","plugin_version","time_elapsed","random_id","rt","stimulus","response","task","correct_response","correct"
"true","false","[]","[]","[]","preload","0","2.0.0","22","pgaqm62pgz0","","","","","",""
"true","","","","","fullscreen","1","2.0.0","2282","pgaqm62pgz0","1258","","","","",""
"","","","","","html-keyboard-response","2","2.0.0","3036","pgaqm62pgz0","752","Welcome to the experiment. Press any key to begin."," ","","",""
"","","","","","survey-text","3","2.0.0","8011","pgaqm62pgz0","4971","","{""participant_id"":""A17922543""}","","",""
"","","","","","html-keyboard-response","4","2.0.0","14550","pgaqm62pgz0","6537","
        <p>Welcome to the experiment.</p>
        <p>In this task, you will see pairs of images.</p>
        <p>Your job is to determine whether the image on the right is a rotated version of the image on the left.</p>
        <p>Press the <strong>F</strong> key if the images are the same.</p>
        <p>Press the <strong>J</strong> key if the images are different.</p>
        <p>Press any key to begin.</p>
    "," ","","",""
"","","","","","html-keyboard-response","5","2.0.0","15554","pgaqm62pgz0","null","<div style=""font-size: 75px;"">+</div>","null","","",""
"","","","","","image-keyboard-response","6","2.0.0","20407","pgaqm62pgz0","4848","stimuli/19_50.jpg","f","response","f","true"
"","","","","","html-keyboard-response","7","2.0.0","20910","pgaqm62pgz0","null","<p style=""border: 5px solid green;"">Correct!</p>","null","","",""
"","","","","","html-keyboard-response","8","2.0.0","21913","pgaqm62pgz0","null","<div style=""font-size: 75px;"">+</div>","null","","",""
"","","","","","image-keyboard-response","9","2.0.0","26086","pgaqm62pgz0","4170","stimuli/21_50_R.jpg","j","response","j","true"
"","","","","","html-keyboard-response","10","2.0.0","26588","pgaqm62pgz0","null","<p style=""border: 5px solid green;"">Correct!</p>","null","","",""
"","","","","","html-keyboard-response","11","2.0.0","27591","pgaqm62pgz0","null","<div style=""font-size: 75px;"">+</div>","null","","",""
"","","","","","image-keyboard-response","12","2.0.0","28748","pgaqm62pgz0","1154","stimuli/45_0.jpg","f","response","f","true"
"","","","","","html-keyboard-response","13","2.0.0","29250","pgaqm62pgz0","null","<p style=""border: 5px solid green;"">Correct!</p>","null","","",""
"","","","","","html-keyboard-response","14","2.0.0","30254","pgaqm62pgz0","null","<div style=""font-size: 75px;"">+</div>","null","","",""
"","","","","","image-keyboard-response","15","2.0.0","33054","pgaqm62pgz0","2798","stimuli/25_100.jpg","f","response","f","true"
"","","","","","html-keyboard-response","16","2.0.0","33557","pgaqm62pgz0","null","<p style=""border: 5px solid green;"">Correct!</p>","null","","",""
"","","","","","html-keyboard-response","17","2.0.0","34560","pgaqm62pgz0","null","<div style=""font-size: 75px;"">+</div>","null","","",""
"","","","","","image-keyboard-response","18","2.0.0","37003","pgaqm62pgz0","2441","stimuli/31_100_R.jpg","j","response","j","true"
"","","","","","html-keyboard-response","19","2.0.0","37506","pgaqm62pgz0","null","<p style=""border: 5px solid green;"">Correct!</p>","null","","",""
"","","","","","html-keyboard-response","20","2.0.0","38509","pgaqm62pgz0","null","<div style=""font-size: 75px;"">+</div>","null","","",""
"","","","","","image-keyboard-response","21","2.0.0","40797","pgaqm62pgz0","2285","stimuli/30_100_R.jpg","j","response","j","true"
"","","","","","html-keyboard-response","22","2.0.0","41299","pgaqm62pgz0","null","<p style=""border: 5px solid green;"">Correct!</p>","null","","",""
"","","","","","html-keyboard-response","23","2.0.0","42303","pgaqm62pgz0","null","<div style=""font-size: 75px;"">+</div>","null","","",""
"","","","","","image-keyboard-response","24","2.0.0","43864","pgaqm62pgz0","1559","stimuli/34_50_R.jpg","j","response","j","true"
"","","","","","html-keyboard-response","25","2.0.0","44367","pgaqm62pgz0","null","<p style=""border: 5px solid green;"">Correct!</p>","null","","",""
"","","","","","html-keyboard-response","26","2.0.0","45370","pgaqm62pgz0","null","<div style=""font-size: 75px;"">+</div>","null","","",""
"","","","","","image-keyboard-response","27","2.0.0","50986","pgaqm62pgz0","5613","stimuli/40_50.jpg","f","response","f","true"
"","","","","","html-keyboard-response","28","2.0.0","51487","pgaqm62pgz0","null","<p style=""border: 5px solid green;"">Correct!</p>","null","","",""
"","","","","","html-keyboard-response","29","2.0.0","52490","pgaqm62pgz0","null","<div style=""font-size: 75px;"">+</div>","null","","",""
"","","","","","image-keyboard-response","30","2.0.0","53739","pgaqm62pgz0","1246","stimuli/24_0.jpg","f","response","f","true"
"","","","","","html-keyboard-response","31","2.0.0","54240","pgaqm62pgz0","null","<p style=""border: 5px solid green;"">Correct!</p>","null","","",""
"","","","","","html-keyboard-response","32","2.0.0","55242","pgaqm62pgz0","null","<div style=""font-size: 75px;"">+</div>","null","","",""
"","","","","","image-keyboard-response","33","2.0.0","56393","pgaqm62pgz0","1148","stimuli/28_0_R.jpg","j","response","j","true"
"","","","","","html-keyboard-response","34","2.0.0","56894","pgaqm62pgz0","null","<p style=""border: 5px solid green;"">Correct!</p>","null","","",""
"","","","","","html-keyboard-response","35","2.0.0","57898","pgaqm62pgz0","null","<div style=""font-size: 75px;"">+</div>","null","","",""
"","","","","","image-keyboard-response","36","2.0.0","61348","pgaqm62pgz0","3448","stimuli/42_150_R.jpg","j","response","j","true"
"","","","","","html-keyboard-response","37","2.0.0","61850","pgaqm62pgz0","null","<p style=""border: 5px solid green;"">Correct!</p>","null","","",""
"","","","","","html-keyboard-response","38","2.0.0","62853","pgaqm62pgz0","null","<div style=""font-size: 75px;"">+</div>","null","","",""
"","","","","","image-keyboard-response","39","2.0.0","66103","pgaqm62pgz0","3248","stimuli/9_50_R.jpg","j","response","j","true"
"","","","","","html-keyboard-response","40","2.0.0","66605","pgaqm62pgz0","null","<p style=""border: 5px solid green;"">Correct!</p>","null","","",""
"","","","","","html-keyboard-response","41","2.0.0","67609","pgaqm62pgz0","null","<div style=""font-size: 75px;"">+</div>","null","","",""
"","","","","","image-keyboard-response","42","2.0.0","70406","pgaqm62pgz0","2796","stimuli/3_50_R.jpg","f","response","j","false"
"","","","","","html-keyboard-response","43","2.0.0","70908","pgaqm62pgz0","null","<p style=""border: 5px solid red;"">Incorrect.</p>","null","","",""
"","","","","","html-keyboard-response","44","2.0.0","71911","pgaqm62pgz0","null","<div style=""font-size: 75px;"">+</div>","null","","",""
"","","","","","image-keyboard-response","45","2.0.0","73097","pgaqm62pgz0","1184","stimuli/30_0.jpg","j","response","f","false"
"","","","","","html-keyboard-response","46","2.0.0","73599","pgaqm62pgz0","null","<p style=""border: 5px solid red;"">Incorrect.</p>","null","","",""
"","","","","","html-keyboard-response","47","2.0.0","74603","pgaqm62pgz0","null","<div style=""font-size: 75px;"">+</div>","null","","",""
"","","","","","image-keyboard-response","48","2.0.0","76090","pgaqm62pgz0","1485","stimuli/16_150_R.jpg","j","response","j","true"
"","","","","","html-keyboard-response","49","2.0.0","76591","pgaqm62pgz0","null","<p style=""border: 5px solid green;"">Correct!</p>","null","","",""
"","","","","","html-keyboard-response","50","2.0.0","77595","pgaqm62pgz0","null","<div style=""font-size: 75px;"">+</div>","null","","",""
"","","","","","image-keyboard-response","51","2.0.0","80137","pgaqm62pgz0","2540","stimuli/14_100_R.jpg","j","response","j","true"
"","","","","","html-keyboard-response","52","2.0.0","80639","pgaqm62pgz0","null","<p style=""border: 5px solid green;"">Correct!</p>","null","","",""
"","","","","","html-keyboard-response","53","2.0.0","81642","pgaqm62pgz0","null","<div style=""font-size: 75px;"">+</div>","null","","",""
"","","","","","image-keyboard-response","54","2.0.0","82828","pgaqm62pgz0","1174","stimuli/38_50_R.jpg","j","response","j","true"
"","","","","","html-keyboard-response","55","2.0.0","83329","pgaqm62pgz0","null","<p style=""border: 5px solid green;"">Correct!</p>","null","","",""
"","","","","","html-keyboard-response","56","2.0.0","84332","pgaqm62pgz0","null","<div style=""font-size: 75px;"">+</div>","null","","",""
"","","","","","image-keyboard-response","57","2.0.0","86552","pgaqm62pgz0","2218","stimuli/42_100.jpg","f","response","f","true"
"","","","","","html-keyboard-response","58","2.0.0","87054","pgaqm62pgz0","null","<p style=""border: 5px solid green;"">Correct!</p>","null","","",""
"","","","","","html-keyboard-response","59","2.0.0","88057","pgaqm62pgz0","null","<div style=""font-size: 75px;"">+</div>","null","","",""
"","","","","","image-keyboard-response","60","2.0.0","89091","pgaqm62pgz0","1032","stimuli/43_50_R.jpg","j","response","j","true"
"","","","","","html-keyboard-response","61","2.0.0","89593","pgaqm62pgz0","null","<p style=""border: 5px solid green;"">Correct!</p>","null","","",""
"","","","","","html-keyboard-response","62","2.0.0","90596","pgaqm62pgz0","null","<div style=""font-size: 75px;"">+</div>","null","","",""
"","","","","","image-keyboard-response","63","2.0.0","92489","pgaqm62pgz0","1891","stimuli/42_50_R.jpg","j","response","j","true"
"","","","","","html-keyboard-response","64","2.0.0","92990","pgaqm62pgz0","null","<p style=""border: 5px solid green;"">Correct!</p>","null","","",""
"","","","","","html-keyboard-response","65","2.0.0","93992","pgaqm62pgz0","null","<div style=""font-size: 75px;"">+</div>","null","","",""
"","","","","","image-keyboard-response","66","2.0.0","99606","pgaqm62pgz0","5613","stimuli/40_150_R.jpg","j","response","j","true"
"","","","","","html-keyboard-response","67","2.0.0","100108","pgaqm62pgz0","null","<p style=""border: 5px solid green;"">Correct!</p>","null","","",""
"","","","","","html-keyboard-response","68","2.0.0","101112","pgaqm62pgz0","null","<div style=""font-size: 75px;"">+</div>","null","","",""
"","","","","","image-keyboard-response","69","2.0.0","104750","pgaqm62pgz0","3636","stimuli/31_150_R.jpg","j","response","j","true"
"","","","","","html-keyboard-response","70","2.0.0","105252","pgaqm62pgz0","null","<p style=""border: 5px solid green;"">Correct!</p>","null","","",""
"","","","","","html-keyboard-response","71","2.0.0","106255","pgaqm62pgz0","null","<div style=""font-size: 75px;"">+</div>","null","","",""
"","","","","","image-keyboard-response","72","2.0.0","109256","pgaqm62pgz0","3000","stimuli/40_0.jpg","f","response","f","true"
"","","","","","html-keyboard-response","73","2.0.0","109758","pgaqm62pgz0","null","<p style=""border: 5px solid green;"">Correct!</p>","null","","",""
"","","","","","html-keyboard-response","74","2.0.0","110759","pgaqm62pgz0","null","<div style=""font-size: 75px;"">+</div>","null","","",""
"","","","","","image-keyboard-response","75","2.0.0","113189","pgaqm62pgz0","2427","stimuli/42_50.jpg","f","response","f","true"
"","","","","","html-keyboard-response","76","2.0.0","113690","pgaqm62pgz0","null","<p style=""border: 5px solid green;"">Correct!</p>","null","","",""
"","","","","","html-keyboard-response","77","2.0.0","114693","pgaqm62pgz0","null","<div style=""font-size: 75px;"">+</div>","null","","",""
"","","","","","image-keyboard-response","78","2.0.0","116698","pgaqm62pgz0","2003","stimuli/34_100_R.jpg","j","response","j","true"
"","","","","","html-keyboard-response","79","2.0.0","117200","pgaqm62pgz0","null","<p style=""border: 5px solid green;"">Correct!</p>","null","","",""
"","","","","","html-keyboard-response","80","2.0.0","118203","pgaqm62pgz0","null","<div style=""font-size: 75px;"">+</div>","null","","",""
"","","","","","image-keyboard-response","81","2.0.0","127559","pgaqm62pgz0","9354","stimuli/35_100_R.jpg","j","response","j","true"
"","","","","","html-keyboard-response","82","2.0.0","128061","pgaqm62pgz0","null","<p style=""border: 5px solid green;"">Correct!</p>","null","","",""
"","","","","","html-keyboard-response","83","2.0.0","129062","pgaqm62pgz0","null","<div style=""font-size: 75px;"">+</div>","null","","",""
"","","","","","image-keyboard-response","84","2.0.0","132225","pgaqm62pgz0","3161","stimuli/35_50.jpg","f","response","f","true"
"","","","","","html-keyboard-response","85","2.0.0","132727","pgaqm62pgz0","null","<p style=""border: 5px solid green;"">Correct!</p>","null","","",""
"","","","","","html-keyboard-response","86","2.0.0","133730","pgaqm62pgz0","null","<div style=""font-size: 75px;"">+</div>","null","","",""
"","","","","","image-keyboard-response","87","2.0.0","136186","pgaqm62pgz0","2455","stimuli/1_150_R.jpg","j","response","j","true"
"","","","","","html-keyboard-response","88","2.0.0","136688","pgaqm62pgz0","null","<p style=""border: 5px solid green;"">Correct!</p>","null","","",""
"","","","","","html-keyboard-response","89","2.0.0","137691","pgaqm62pgz0","null","<div style=""font-size: 75px;"">+</div>","null","","",""
"","","","","","image-keyboard-response","90","2.0.0","142339","pgaqm62pgz0","4646","stimuli/12_50_R.jpg","j","response","j","true"
"","","","","","html-keyboard-response","91","2.0.0","142840","pgaqm62pgz0","null","<p style=""border: 5px solid green;"">Correct!</p>","null","","",""
"","","","","","html-keyboard-response","92","2.0.0","143842","pgaqm62pgz0","null","<div style=""font-size: 75px;"">+</div>","null","","",""
"","","","","","image-keyboard-response","93","2.0.0","147762","pgaqm62pgz0","3918","stimuli/42_150.jpg","f","response","f","true"
"","","","","","html-keyboard-response","94","2.0.0","148264","pgaqm62pgz0","null","<p style=""border: 5px solid green;"">Correct!</p>","null","","",""
"","","","","","html-keyboard-response","95","2.0.0","149267","pgaqm62pgz0","null","<div style=""font-size: 75px;"">+</div>","null","","",""
"","","","","","image-keyboard-response","96","2.0.0","151086","pgaqm62pgz0","1817","stimuli/28_100_R.jpg","j","response","j","true"
"","","","","","html-keyboard-response","97","2.0.0","151588","pgaqm62pgz0","null","<p style=""border: 5px solid green;"">Correct!</p>","null","","",""
"","","","","","html-keyboard-response","98","2.0.0","152590","pgaqm62pgz0","null","<div style=""font-size: 75px;"">+</div>","null","","",""
"","","","","","image-keyboard-response","99","2.0.0","154643","pgaqm62pgz0","2052","stimuli/19_100.jpg","f","response","f","true"
"","","","","","html-keyboard-response","100","2.0.0","155145","pgaqm62pgz0","null","<p style=""border: 5px solid green;"">Correct!</p>","null","","",""
"","","","","","html-keyboard-response","101","2.0.0","156148","pgaqm62pgz0","null","<div style=""font-size: 75px;"">+</div>","null","","",""
"","","","","","image-keyboard-response","102","2.0.0","157690","pgaqm62pgz0","1540","stimuli/21_100_R.jpg","j","response","j","true"
"","","","","","html-keyboard-response","103","2.0.0","158191","pgaqm62pgz0","null","<p style=""border: 5px solid green;"">Correct!</p>","null","","",""
"","","","","","html-keyboard-response","104","2.0.0","159193","pgaqm62pgz0","null","<div style=""font-size: 75px;"">+</div>","null","","",""
"","","","","","image-keyboard-response","105","2.0.0","163168","pgaqm62pgz0","3973","stimuli/10_150.jpg","f","response","f","true"
"","","","","","html-keyboard-response","106","2.0.0","163670","pgaqm62pgz0","null","<p style=""border: 5px solid green;"">Correct!</p>","null","","",""
"","","","","","html-keyboard-response","107","2.0.0","164673","pgaqm62pgz0","null","<div style=""font-size: 75px;"">+</div>","null","","",""
"","","","","","image-keyboard-response","108","2.0.0","166089","pgaqm62pgz0","1414","stimuli/28_150_R.jpg","j","response","j","true"
"","","","","","html-keyboard-response","109","2.0.0","166592","pgaqm62pgz0","null","<p style=""border: 5px solid green;"">Correct!</p>","null","","",""
"","","","","","html-keyboard-response","110","2.0.0","167595","pgaqm62pgz0","null","<div style=""font-size: 75px;"">+</div>","null","","",""
"","","","","","image-keyboard-response","111","2.0.0","168719","pgaqm62pgz0","1122","stimuli/23_0.jpg","f","response","f","true"
"","","","","","html-keyboard-response","112","2.0.0","169221","pgaqm62pgz0","null","<p style=""border: 5px solid green;"">Correct!</p>","null","","",""
"","","","","","html-keyboard-response","113","2.0.0","170224","pgaqm62pgz0","null","<div style=""font-size: 75px;"">+</div>","null","","",""
"","","","","","image-keyboard-response","114","2.0.0","171620","pgaqm62pgz0","1395","stimuli/13_100_R.jpg","j","response","j","true"
"","","","","","html-keyboard-response","115","2.0.0","172122","pgaqm62pgz0","null","<p style=""border: 5px solid green;"">Correct!</p>","null","","",""
"","","","","","html-keyboard-response","116","2.0.0","173125","pgaqm62pgz0","null","<div style=""font-size: 75px;"">+</div>","null","","",""
"","","","","","image-keyboard-response","117","2.0.0","175168","pgaqm62pgz0","2042","stimuli/43_50.jpg","f","response","f","true"
"","","","","","html-keyboard-response","118","2.0.0","175670","pgaqm62pgz0","null","<p style=""border: 5px solid green;"">Correct!</p>","null","","",""
"","","","","","html-keyboard-response","119","2.0.0","176673","pgaqm62pgz0","null","<div style=""font-size: 75px;"">+</div>","null","","",""
"","","","","","image-keyboard-response","120","2.0.0","178554","pgaqm62pgz0","1880","stimuli/32_50.jpg","f","response","f","true"
"","","","","","html-keyboard-response","121","2.0.0","179056","pgaqm62pgz0","null","<p style=""border: 5px solid green;"">Correct!</p>","null","","",""
"","","","","","html-keyboard-response","122","2.0.0","180057","pgaqm62pgz0","null","<div style=""font-size: 75px;"">+</div>","null","","",""
"","","","","","image-keyboard-response","123","2.0.0","180956","pgaqm62pgz0","897","stimuli/27_50_R.jpg","j","response","j","true"
"","","","","","html-keyboard-response","124","2.0.0","181458","pgaqm62pgz0","null","<p style=""border: 5px solid green;"">Correct!</p>","null","","",""
"","","","","","html-keyboard-response","125","2.0.0","182461","pgaqm62pgz0","null","<div style=""font-size: 75px;"">+</div>","null","","",""
"","","","","","image-keyboard-response","126","2.0.0","184434","pgaqm62pgz0","1971","stimuli/14_100.jpg","f","response","f","true"
"","","","","","html-keyboard-response","127","2.0.0","184937","pgaqm62pgz0","null","<p style=""border: 5px solid green;"">Correct!</p>","null","","",""
"","","","","","html-keyboard-response","128","2.0.0","185940","pgaqm62pgz0","null","<div style=""font-size: 75px;"">+</div>","null","","",""
"","","","","","image-keyboard-response","129","2.0.0","187244","pgaqm62pgz0","1303","stimuli/8_0_R.jpg","j","response","j","true"
"","","","","","html-keyboard-response","130","2.0.0","187746","pgaqm62pgz0","null","<p style=""border: 5px solid green;"">Correct!</p>","null","","",""
"","","","","","html-keyboard-response","131","2.0.0","188749","pgaqm62pgz0","null","<div style=""font-size: 75px;"">+</div>","null","","",""
"","","","","","image-keyboard-response","132","2.0.0","191199","pgaqm62pgz0","2448","stimuli/21_150.jpg","f","response","f","true"
"","","","","","html-keyboard-response","133","2.0.0","191701","pgaqm62pgz0","null","<p style=""border: 5px solid green;"">Correct!</p>","null","","",""
"","","","","","html-keyboard-response","134","2.0.0","192704","pgaqm62pgz0","null","<div style=""font-size: 75px;"">+</div>","null","","",""
"","","","","","image-keyboard-response","135","2.0.0","195225","pgaqm62pgz0","2518","stimuli/31_50_R.jpg","j","response","j","true"
"","","","","","html-keyboard-response","136","2.0.0","195727","pgaqm62pgz0","null","<p style=""border: 5px solid green;"">Correct!</p>","null","","",""
"","","","","","html-keyboard-response","137","2.0.0","196729","pgaqm62pgz0","null","<div style=""font-size: 75px;"">+</div>","null","","",""
"","","","","","image-keyboard-response","138","2.0.0","198220","pgaqm62pgz0","1489","stimuli/41_0.jpg","f","response","f","true"
"","","","","","html-keyboard-response","139","2.0.0","198721","pgaqm62pgz0","null","<p style=""border: 5px solid green;"">Correct!</p>","null","","",""
"","","","","","html-keyboard-response","140","2.0.0","199724","pgaqm62pgz0","null","<div style=""font-size: 75px;"">+</div>","null","","",""
"","","","","","image-keyboard-response","141","2.0.0","202126","pgaqm62pgz0","2400","stimuli/33_150_R.jpg","j","response","j","true"
"","","","","","html-keyboard-response","142","2.0.0","202628","pgaqm62pgz0","null","<p style=""border: 5px solid green;"">Correct!</p>","null","","",""
"","","","","","html-keyboard-response","143","2.0.0","203631","pgaqm62pgz0","null","<div style=""font-size: 75px;"">+</div>","null","","",""
"","","","","","image-keyboard-response","144","2.0.0","206461","pgaqm62pgz0","2828","stimuli/41_150.jpg","f","response","f","true"
"","","","","","html-keyboard-response","145","2.0.0","206963","pgaqm62pgz0","null","<p style=""border: 5px solid green;"">Correct!</p>","null","","",""
"","","","","","html-keyboard-response","146","2.0.0","207966","pgaqm62pgz0","null","<div style=""font-size: 75px;"">+</div>","null","","",""
"","","","","","image-keyboard-response","147","2.0.0","210558","pgaqm62pgz0","2589","stimuli/6_150.jpg","f","response","f","true"
"","","","","","html-keyboard-response","148","2.0.0","211060","pgaqm62pgz0","null","<p style=""border: 5px solid green;"">Correct!</p>","null","","",""
"","","","","","html-keyboard-response","149","2.0.0","241061","pgaqm62pgz0","null","<p> Take a break! Experiment continues in 30 seconds . </p>","null","","",""
"","","","","","html-keyboard-response","150","2.0.0","242064","pgaqm62pgz0","null","<div style=""font-size: 75px;"">+</div>","null","","",""
"","","","","","image-keyboard-response","151","2.0.0","243891","pgaqm62pgz0","1826","stimuli/11_0.jpg","f","response","f","true"
"","","","","","html-keyboard-response","152","2.0.0","244393","pgaqm62pgz0","null","<p style=""border: 5px solid green;"">Correct!</p>","null","","",""
"","","","","","html-keyboard-response","153","2.0.0","245394","pgaqm62pgz0","null","<div style=""font-size: 75px;"">+</div>","null","","",""
"","","","","","image-keyboard-response","154","2.0.0","247299","pgaqm62pgz0","1903","stimuli/26_150_R.jpg","f","response","j","false"
"","","","","","html-keyboard-response","155","2.0.0","247802","pgaqm62pgz0","null","<p style=""border: 5px solid red;"">Incorrect.</p>","null","","",""
"","","","","","html-keyboard-response","156","2.0.0","248804","pgaqm62pgz0","null","<div style=""font-size: 75px;"">+</div>","null","","",""
"","","","","","image-keyboard-response","157","2.0.0","250857","pgaqm62pgz0","2040","stimuli/17_150_R.jpg","j","response","j","true"
"","","","","","html-keyboard-response","158","2.0.0","251359","pgaqm62pgz0","null","<p style=""border: 5px solid green;"">Correct!</p>","null","","",""
"","","","","","html-keyboard-response","159","2.0.0","252362","pgaqm62pgz0","null","<div style=""font-size: 75px;"">+</div>","null","","",""
"","","","","","image-keyboard-response","160","2.0.0","254122","pgaqm62pgz0","1759","stimuli/9_50.jpg","f","response","f","true"
"","","","","","html-keyboard-response","161","2.0.0","254624","pgaqm62pgz0","null","<p style=""border: 5px solid green;"">Correct!</p>","null","","",""
"","","","","","html-keyboard-response","162","2.0.0","255626","pgaqm62pgz0","null","<div style=""font-size: 75px;"">+</div>","null","","",""
"","","","","","image-keyboard-response","163","2.0.0","256774","pgaqm62pgz0","1146","stimuli/3_0.jpg","f","response","f","true"
"","","","","","html-keyboard-response","164","2.0.0","257275","pgaqm62pgz0","null","<p style=""border: 5px solid green;"">Correct!</p>","null","","",""
"","","","","","html-keyboard-response","165","2.0.0","258276","pgaqm62pgz0","null","<div style=""font-size: 75px;"">+</div>","null","","",""
"","","","","","image-keyboard-response","166","2.0.0","259830","pgaqm62pgz0","1552","stimuli/45_50_R.jpg","j","response","j","true"
"","","","","","html-keyboard-response","167","2.0.0","260333","pgaqm62pgz0","null","<p style=""border: 5px solid green;"">Correct!</p>","null","","",""
"","","","","","html-keyboard-response","168","2.0.0","261336","pgaqm62pgz0","null","<div style=""font-size: 75px;"">+</div>","null","","",""
"","","","","","image-keyboard-response","169","2.0.0","262909","pgaqm62pgz0","1571","stimuli/18_0_R.jpg","j","response","j","true"
"","","","","","html-keyboard-response","170","2.0.0","263411","pgaqm62pgz0","null","<p style=""border: 5px solid green;"">Correct!</p>","null","","",""
"","","","","","html-keyboard-response","171","2.0.0","264414","pgaqm62pgz0","null","<div style=""font-size: 75px;"">+</div>","null","","",""
"","","","","","image-keyboard-response","172","2.0.0","266658","pgaqm62pgz0","2242","stimuli/47_150.jpg","f","response","f","true"
"","","","","","html-keyboard-response","173","2.0.0","267160","pgaqm62pgz0","null","<p style=""border: 5px solid green;"">Correct!</p>","null","","",""
"","","","","","html-keyboard-response","174","2.0.0","268162","pgaqm62pgz0","null","<div style=""font-size: 75px;"">+</div>","null","","",""
"","","","","","image-keyboard-response","175","2.0.0","269423","pgaqm62pgz0","1259","stimuli/18_0.jpg","f","response","f","true"
"","","","","","html-keyboard-response","176","2.0.0","269925","pgaqm62pgz0","null","<p style=""border: 5px solid green;"">Correct!</p>","null","","",""
"","","","","","html-keyboard-response","177","2.0.0","270928","pgaqm62pgz0","null","<div style=""font-size: 75px;"">+</div>","null","","",""
"","","","","","image-keyboard-response","178","2.0.0","273723","pgaqm62pgz0","2792","stimuli/24_50.jpg","f","response","f","true"
"","","","","","html-keyboard-response","179","2.0.0","274224","pgaqm62pgz0","null","<p style=""border: 5px solid green;"">Correct!</p>","null","","",""
"","","","","","html-keyboard-response","180","2.0.0","275226","pgaqm62pgz0","null","<div style=""font-size: 75px;"">+</div>","null","","",""
"","","","","","image-keyboard-response","181","2.0.0","279438","pgaqm62pgz0","4211","stimuli/34_150_R.jpg","j","response","j","true"
"","","","","","html-keyboard-response","182","2.0.0","279940","pgaqm62pgz0","null","<p style=""border: 5px solid green;"">Correct!</p>","null","","",""
"","","","","","html-keyboard-response","183","2.0.0","280943","pgaqm62pgz0","null","<div style=""font-size: 75px;"">+</div>","null","","",""
"","","","","","image-keyboard-response","184","2.0.0","283965","pgaqm62pgz0","3020","stimuli/12_100.jpg","f","response","f","true"
"","","","","","html-keyboard-response","185","2.0.0","284467","pgaqm62pgz0","null","<p style=""border: 5px solid green;"">Correct!</p>","null","","",""
"","","","","","html-keyboard-response","186","2.0.0","285469","pgaqm62pgz0","null","<div style=""font-size: 75px;"">+</div>","null","","",""
"","","","","","image-keyboard-response","187","2.0.0","291242","pgaqm62pgz0","5771","stimuli/47_0.jpg","f","response","f","true"
"","","","","","html-keyboard-response","188","2.0.0","291743","pgaqm62pgz0","null","<p style=""border: 5px solid green;"">Correct!</p>","null","","",""
"","","","","","html-keyboard-response","189","2.0.0","292746","pgaqm62pgz0","null","<div style=""font-size: 75px;"">+</div>","null","","",""
"","","","","","image-keyboard-response","190","2.0.0","295738","pgaqm62pgz0","2990","stimuli/43_100.jpg","f","response","f","true"
"","","","","","html-keyboard-response","191","2.0.0","296239","pgaqm62pgz0","null","<p style=""border: 5px solid green;"">Correct!</p>","null","","",""
"","","","","","html-keyboard-response","192","2.0.0","297242","pgaqm62pgz0","null","<div style=""font-size: 75px;"">+</div>","null","","",""
"","","","","","image-keyboard-response","193","2.0.0","298539","pgaqm62pgz0","1296","stimuli/20_150.jpg","f","response","f","true"
"","","","","","html-keyboard-response","194","2.0.0","299041","pgaqm62pgz0","null","<p style=""border: 5px solid green;"">Correct!</p>","null","","",""
"","","","","","html-keyboard-response","195","2.0.0","300044","pgaqm62pgz0","null","<div style=""font-size: 75px;"">+</div>","null","","",""
"","","","","","image-keyboard-response","196","2.0.0","301097","pgaqm62pgz0","1051","stimuli/38_0_R.jpg","j","response","j","true"
"","","","","","html-keyboard-response","197","2.0.0","301599","pgaqm62pgz0","null","<p style=""border: 5px solid green;"">Correct!</p>","null","","",""
"","","","","","html-keyboard-response","198","2.0.0","302602","pgaqm62pgz0","null","<div style=""font-size: 75px;"">+</div>","null","","",""
"","","","","","image-keyboard-response","199","2.0.0","304082","pgaqm62pgz0","1478","stimuli/1_50.jpg","f","response","f","true"
"","","","","","html-keyboard-response","200","2.0.0","304584","pgaqm62pgz0","null","<p style=""border: 5px solid green;"">Correct!</p>","null","","",""
"","","","","","html-keyboard-response","201","2.0.0","305586","pgaqm62pgz0","null","<div style=""font-size: 75px;"">+</div>","null","","",""
"","","","","","image-keyboard-response","202","2.0.0","306412","pgaqm62pgz0","824","stimuli/43_0_R.jpg","j","response","j","true"
"","","","","","html-keyboard-response","203","2.0.0","306914","pgaqm62pgz0","null","<p style=""border: 5px solid green;"">Correct!</p>","null","","",""
"","","","","","html-keyboard-response","204","2.0.0","307917","pgaqm62pgz0","null","<div style=""font-size: 75px;"">+</div>","null","","",""
"","","","","","image-keyboard-response","205","2.0.0","309298","pgaqm62pgz0","1380","stimuli/6_0_R.jpg","j","response","j","true"
"","","","","","html-keyboard-response","206","2.0.0","309800","pgaqm62pgz0","null","<p style=""border: 5px solid green;"">Correct!</p>","null","","",""
"","","","","","html-keyboard-response","207","2.0.0","310802","pgaqm62pgz0","null","<div style=""font-size: 75px;"">+</div>","null","","",""
"","","","","","image-keyboard-response","208","2.0.0","312817","pgaqm62pgz0","2012","stimuli/17_100.jpg","f","response","f","true"
"","","","","","html-keyboard-response","209","2.0.0","313318","pgaqm62pgz0","null","<p style=""border: 5px solid green;"">Correct!</p>","null","","",""
"","","","","","html-keyboard-response","210","2.0.0","314322","pgaqm62pgz0","null","<div style=""font-size: 75px;"">+</div>","null","","",""
"","","","","","image-keyboard-response","211","2.0.0","316599","pgaqm62pgz0","2275","stimuli/9_150.jpg","j","response","f","false"
"","","","","","html-keyboard-response","212","2.0.0","317100","pgaqm62pgz0","null","<p style=""border: 5px solid red;"">Incorrect.</p>","null","","",""
"","","","","","html-keyboard-response","213","2.0.0","318102","pgaqm62pgz0","null","<div style=""font-size: 75px;"">+</div>","null","","",""
"","","","","","image-keyboard-response","214","2.0.0","318885","pgaqm62pgz0","781","stimuli/19_0_R.jpg","f","response","j","false"
"","","","","","html-keyboard-response","215","2.0.0","319386","pgaqm62pgz0","null","<p style=""border: 5px solid red;"">Incorrect.</p>","null","","",""
"","","","","","html-keyboard-response","216","2.0.0","320389","pgaqm62pgz0","null","<div style=""font-size: 75px;"">+</div>","null","","",""
"","","","","","image-keyboard-response","217","2.0.0","322917","pgaqm62pgz0","2526","stimuli/37_100_R.jpg","j","response","j","true"
"","","","","","html-keyboard-response","218","2.0.0","323419","pgaqm62pgz0","null","<p style=""border: 5px solid green;"">Correct!</p>","null","","",""
"","","","","","html-keyboard-response","219","2.0.0","324421","pgaqm62pgz0","null","<div style=""font-size: 75px;"">+</div>","null","","",""
"","","","","","image-keyboard-response","220","2.0.0","326559","pgaqm62pgz0","2136","stimuli/32_0_R.jpg","j","response","j","true"
"","","","","","html-keyboard-response","221","2.0.0","327060","pgaqm62pgz0","null","<p style=""border: 5px solid green;"">Correct!</p>","null","","",""
"","","","","","html-keyboard-response","222","2.0.0","328063","pgaqm62pgz0","null","<div style=""font-size: 75px;"">+</div>","null","","",""
"","","","","","image-keyboard-response","223","2.0.0","329722","pgaqm62pgz0","1657","stimuli/47_100.jpg","f","response","f","true"
"","","","","","html-keyboard-response","224","2.0.0","330224","pgaqm62pgz0","null","<p style=""border: 5px solid green;"">Correct!</p>","null","","",""
"","","","","","html-keyboard-response","225","2.0.0","331227","pgaqm62pgz0","null","<div style=""font-size: 75px;"">+</div>","null","","",""
"","","","","","image-keyboard-response","226","2.0.0","332610","pgaqm62pgz0","1382","stimuli/2_0_R.jpg","j","response","j","true"
"","","","","","html-keyboard-response","227","2.0.0","333112","pgaqm62pgz0","null","<p style=""border: 5px solid green;"">Correct!</p>","null","","",""
"","","","","","html-keyboard-response","228","2.0.0","334115","pgaqm62pgz0","null","<div style=""font-size: 75px;"">+</div>","null","","",""
"","","","","","image-keyboard-response","229","2.0.0","335824","pgaqm62pgz0","1707","stimuli/13_100.jpg","f","response","f","true"
"","","","","","html-keyboard-response","230","2.0.0","336326","pgaqm62pgz0","null","<p style=""border: 5px solid green;"">Correct!</p>","null","","",""
"","","","","","html-keyboard-response","231","2.0.0","337328","pgaqm62pgz0","null","<div style=""font-size: 75px;"">+</div>","null","","",""
"","","","","","image-keyboard-response","232","2.0.0","339540","pgaqm62pgz0","2211","stimuli/11_50.jpg","f","response","f","true"
"","","","","","html-keyboard-response","233","2.0.0","340042","pgaqm62pgz0","null","<p style=""border: 5px solid green;"">Correct!</p>","null","","",""
"","","","","","html-keyboard-response","234","2.0.0","341043","pgaqm62pgz0","null","<div style=""font-size: 75px;"">+</div>","null","","",""
"","","","","","image-keyboard-response","235","2.0.0","342770","pgaqm62pgz0","1725","stimuli/17_100_R.jpg","j","response","j","true"
"","","","","","html-keyboard-response","236","2.0.0","343272","pgaqm62pgz0","null","<p style=""border: 5px solid green;"">Correct!</p>","null","","",""
"","","","","","html-keyboard-response","237","2.0.0","344275","pgaqm62pgz0","null","<div style=""font-size: 75px;"">+</div>","null","","",""
"","","","","","image-keyboard-response","238","2.0.0","345778","pgaqm62pgz0","1501","stimuli/26_0_R.jpg","j","response","j","true"
"","","","","","html-keyboard-response","239","2.0.0","346280","pgaqm62pgz0","null","<p style=""border: 5px solid green;"">Correct!</p>","null","","",""
"","","","","","html-keyboard-response","240","2.0.0","347281","pgaqm62pgz0","null","<div style=""font-size: 75px;"">+</div>","null","","",""
"","","","","","image-keyboard-response","241","2.0.0","350516","pgaqm62pgz0","3233","stimuli/14_150.jpg","f","response","f","true"
"","","","","","html-keyboard-response","242","2.0.0","351018","pgaqm62pgz0","null","<p style=""border: 5px solid green;"">Correct!</p>","null","","",""
"","","","","","html-keyboard-response","243","2.0.0","352021","pgaqm62pgz0","null","<div style=""font-size: 75px;"">+</div>","null","","",""
"","","","","","image-keyboard-response","244","2.0.0","353648","pgaqm62pgz0","1625","stimuli/19_150_R.jpg","j","response","j","true"
"","","","","","html-keyboard-response","245","2.0.0","354150","pgaqm62pgz0","null","<p style=""border: 5px solid green;"">Correct!</p>","null","","",""
"","","","","","html-keyboard-response","246","2.0.0","355152","pgaqm62pgz0","null","<div style=""font-size: 75px;"">+</div>","null","","",""
"","","","","","image-keyboard-response","247","2.0.0","356492","pgaqm62pgz0","1337","stimuli/3_50.jpg","j","response","f","false"
"","","","","","html-keyboard-response","248","2.0.0","356993","pgaqm62pgz0","null","<p style=""border: 5px solid red;"">Incorrect.</p>","null","","",""
"","","","","","html-keyboard-response","249","2.0.0","357996","pgaqm62pgz0","null","<div style=""font-size: 75px;"">+</div>","null","","",""
"","","","","","image-keyboard-response","250","2.0.0","360658","pgaqm62pgz0","2661","stimuli/3_150.jpg","f","response","f","true"
"","","","","","html-keyboard-response","251","2.0.0","361161","pgaqm62pgz0","null","<p style=""border: 5px solid green;"">Correct!</p>","null","","",""
"","","","","","html-keyboard-response","252","2.0.0","362164","pgaqm62pgz0","null","<div style=""font-size: 75px;"">+</div>","null","","",""
"","","","","","image-keyboard-response","253","2.0.0","365017","pgaqm62pgz0","2851","stimuli/43_100_R.jpg","j","response","j","true"
"","","","","","html-keyboard-response","254","2.0.0","365518","pgaqm62pgz0","null","<p style=""border: 5px solid green;"">Correct!</p>","null","","",""
"","","","","","html-keyboard-response","255","2.0.0","366521","pgaqm62pgz0","null","<div style=""font-size: 75px;"">+</div>","null","","",""
"","","","","","image-keyboard-response","256","2.0.0","367632","pgaqm62pgz0","1109","stimuli/28_0.jpg","f","response","f","true"
"","","","","","html-keyboard-response","257","2.0.0","368134","pgaqm62pgz0","null","<p style=""border: 5px solid green;"">Correct!</p>","null","","",""
"","","","","","html-keyboard-response","258","2.0.0","369136","pgaqm62pgz0","null","<div style=""font-size: 75px;"">+</div>","null","","",""
"","","","","","image-keyboard-response","259","2.0.0","371829","pgaqm62pgz0","2690","stimuli/11_0_R.jpg","j","response","j","true"
"","","","","","html-keyboard-response","260","2.0.0","372332","pgaqm62pgz0","null","<p style=""border: 5px solid green;"">Correct!</p>","null","","",""
"","","","","","html-keyboard-response","261","2.0.0","373335","pgaqm62pgz0","null","<div style=""font-size: 75px;"">+</div>","null","","",""
"","","","","","image-keyboard-response","262","2.0.0","375962","pgaqm62pgz0","2625","stimuli/36_0_R.jpg","j","response","j","true"
"","","","","","html-keyboard-response","263","2.0.0","376463","pgaqm62pgz0","null","<p style=""border: 5px solid green;"">Correct!</p>","null","","",""
"","","","","","html-keyboard-response","264","2.0.0","377472","pgaqm62pgz0","null","<div style=""font-size: 75px;"">+</div>","null","","",""
"","","","","","image-keyboard-response","265","2.0.0","378782","pgaqm62pgz0","1308","stimuli/48_0.jpg","f","response","f","true"
"","","","","","html-keyboard-response","266","2.0.0","379283","pgaqm62pgz0","null","<p style=""border: 5px solid green;"">Correct!</p>","null","","",""
"","","","","","html-keyboard-response","267","2.0.0","380286","pgaqm62pgz0","null","<div style=""font-size: 75px;"">+</div>","null","","",""
"","","","","","image-keyboard-response","268","2.0.0","382391","pgaqm62pgz0","2102","stimuli/17_50.jpg","f","response","f","true"
"","","","","","html-keyboard-response","269","2.0.0","382892","pgaqm62pgz0","null","<p style=""border: 5px solid green;"">Correct!</p>","null","","",""
"","","","","","html-keyboard-response","270","2.0.0","383895","pgaqm62pgz0","null","<div style=""font-size: 75px;"">+</div>","null","","",""
"","","","","","image-keyboard-response","271","2.0.0","385346","pgaqm62pgz0","1449","stimuli/14_150_R.jpg","f","response","j","false"
"","","","","","html-keyboard-response","272","2.0.0","385847","pgaqm62pgz0","null","<p style=""border: 5px solid red;"">Incorrect.</p>","null","","",""
"","","","","","html-keyboard-response","273","2.0.0","386850","pgaqm62pgz0","null","<div style=""font-size: 75px;"">+</div>","null","","",""
"","","","","","image-keyboard-response","274","2.0.0","388562","pgaqm62pgz0","1710","stimuli/46_100.jpg","f","response","f","true"
"","","","","","html-keyboard-response","275","2.0.0","389064","pgaqm62pgz0","null","<p style=""border: 5px solid green;"">Correct!</p>","null","","",""
"","","","","","html-keyboard-response","276","2.0.0","390066","pgaqm62pgz0","null","<div style=""font-size: 75px;"">+</div>","null","","",""
"","","","","","image-keyboard-response","277","2.0.0","393296","pgaqm62pgz0","3228","stimuli/12_150.jpg","f","response","f","true"
"","","","","","html-keyboard-response","278","2.0.0","393798","pgaqm62pgz0","null","<p style=""border: 5px solid green;"">Correct!</p>","null","","",""
"","","","","","html-keyboard-response","279","2.0.0","394800","pgaqm62pgz0","null","<div style=""font-size: 75px;"">+</div>","null","","",""
"","","","","","image-keyboard-response","280","2.0.0","400265","pgaqm62pgz0","5463","stimuli/29_150.jpg","f","response","f","true"
"","","","","","html-keyboard-response","281","2.0.0","400767","pgaqm62pgz0","null","<p style=""border: 5px solid green;"">Correct!</p>","null","","",""
"","","","","","html-keyboard-response","282","2.0.0","401770","pgaqm62pgz0","null","<div style=""font-size: 75px;"">+</div>","null","","",""
"","","","","","image-keyboard-response","283","2.0.0","405925","pgaqm62pgz0","4154","stimuli/33_50_R.jpg","j","response","j","true"
"","","","","","html-keyboard-response","284","2.0.0","406428","pgaqm62pgz0","null","<p style=""border: 5px solid green;"">Correct!</p>","null","","",""
"","","","","","html-keyboard-response","285","2.0.0","407431","pgaqm62pgz0","null","<div style=""font-size: 75px;"">+</div>","null","","",""
"","","","","","image-keyboard-response","286","2.0.0","410172","pgaqm62pgz0","2740","stimuli/34_100.jpg","f","response","f","true"
"","","","","","html-keyboard-response","287","2.0.0","410674","pgaqm62pgz0","null","<p style=""border: 5px solid green;"">Correct!</p>","null","","",""
"","","","","","html-keyboard-response","288","2.0.0","411676","pgaqm62pgz0","null","<div style=""font-size: 75px;"">+</div>","null","","",""
"","","","","","image-keyboard-response","289","2.0.0","414543","pgaqm62pgz0","2865","stimuli/3_100_R.jpg","j","response","j","true"
"","","","","","html-keyboard-response","290","2.0.0","415045","pgaqm62pgz0","null","<p style=""border: 5px solid green;"">Correct!</p>","null","","",""
"","","","","","html-keyboard-response","291","2.0.0","416048","pgaqm62pgz0","null","<div style=""font-size: 75px;"">+</div>","null","","",""
"","","","","","image-keyboard-response","292","2.0.0","418806","pgaqm62pgz0","2757","stimuli/15_100.jpg","f","response","f","true"
"","","","","","html-keyboard-response","293","2.0.0","419308","pgaqm62pgz0","null","<p style=""border: 5px solid green;"">Correct!</p>","null","","",""
"","","","","","html-keyboard-response","294","2.0.0","420607","pgaqm62pgz0","1297","<p>Thank you for participating!</p><p>Please press space to answer our survey.</p>"," ","","",""
"","","","","","survey-html-form","295","null","538170","pgaqm62pgz0","117559","","{""response_1"":""Moderately clear and lively"",""response_2"":""Dim and vague; flat"",""response_3"":""Dim and vague; flat"",""response_4"":""No image at all, you only “know” that you are thinking of the object"",""response_5"":""Dim and vague; flat"",""response_6"":""Perfectly clear and lively as real seeing"",""response_7"":""No image at all, you only “know” that you are thinking of the object"",""response_8"":""No image at all, you only “know” that you are thinking of the object"",""response_9"":""Perfectly clear and lively as real seeing"",""response_10"":""Clear and lively"",""response_11"":""Perfectly clear and lively as real seeing"",""response_12"":""Perfectly clear and lively as real seeing"",""response_13"":""Perfectly clear and lively as real seeing"",""response_14"":""Perfectly clear and lively as real seeing"",""response_15"":""Perfectly clear and lively as real seeing"",""response_16"":""Perfectly clear and lively as real seeing""}","","",""
"","","","","","survey-html-form","296","null","647626","pgaqm62pgz0","109407","","{""age"":""20"",""gender"":""female"",""education"":""bachelors"",""handedness"":""right"",""vision"":""corrected"",""technical_difficulties"":""no"",""knowledge_check"":""I think it's testing how well an individual can visualize and move objects in their mind""}","","",""
