"success","timeout","failed_images","failed_audio","failed_video","trial_type","trial_index","plugin_version","time_elapsed","random_id","rt","stimulus","response","task","correct_response","correct"
"true","false","[]","[]","[]","preload","0","2.0.0","4360","ph8yy58z5nz","","","","","",""
"true","","","","","fullscreen","1","2.0.0","7455","ph8yy58z5nz","2084","","","","",""
"","","","","","html-keyboard-response","2","2.0.0","8364","ph8yy58z5nz","892","Welcome to the experiment. Press any key to begin.","Enter","","",""
"","","","","","survey-text","3","2.0.0","15912","ph8yy58z5nz","7538","","{""participant_id"":""manatee""}","","",""
"","","","","","html-keyboard-response","4","2.0.0","32238","ph8yy58z5nz","16323","
        <p>Welcome to the experiment.</p>
        <p>In this task, you will see pairs of images.</p>
        <p>Your job is to determine whether the image on the right is a rotated version of the image on the left.</p>
        <p>Press the <strong>F</strong> key if the images are the same.</p>
        <p>Press the <strong>J</strong> key if the images are different.</p>
        <p>Press any key to begin.</p>
    ","Enter","","",""
"","","","","","html-keyboard-response","5","2.0.0","33243","ph8yy58z5nz","null","<div style=""font-size: 75px;"">+</div>","null","","",""
"","","","","","image-keyboard-response","6","2.0.0","38682","ph8yy58z5nz","5422","stimuli/43_0_R.jpg","j","response","j","true"
"","","","","","html-keyboard-response","7","2.0.0","39201","ph8yy58z5nz","null","<p style=""border: 5px solid green;"">Correct!</p>","null","","",""
"","","","","","html-keyboard-response","8","2.0.0","40215","ph8yy58z5nz","null","<div style=""font-size: 75px;"">+</div>","null","","",""
"","","","","","image-keyboard-response","9","2.0.0","46926","ph8yy58z5nz","6701","stimuli/41_100_R.jpg","f","response","j","false"
"","","","","","html-keyboard-response","10","2.0.0","47434","ph8yy58z5nz","null","<p style=""border: 5px solid red;"">Incorrect.</p>","null","","",""
"","","","","","html-keyboard-response","11","2.0.0","48454","ph8yy58z5nz","null","<div style=""font-size: 75px;"">+</div>","null","","",""
"","","","","","image-keyboard-response","12","2.0.0","57845","ph8yy58z5nz","9385","stimuli/30_150_R.jpg","j","response","j","true"
"","","","","","html-keyboard-response","13","2.0.0","58356","ph8yy58z5nz","null","<p style=""border: 5px solid green;"">Correct!</p>","null","","",""
"","","","","","html-keyboard-response","14","2.0.0","59364","ph8yy58z5nz","null","<div style=""font-size: 75px;"">+</div>","null","","",""
"","","","","","image-keyboard-response","15","2.0.0","63897","ph8yy58z5nz","4525","stimuli/13_150.jpg","f","response","f","true"
"","","","","","html-keyboard-response","16","2.0.0","64415","ph8yy58z5nz","null","<p style=""border: 5px solid green;"">Correct!</p>","null","","",""
"","","","","","html-keyboard-response","17","2.0.0","65425","ph8yy58z5nz","null","<div style=""font-size: 75px;"">+</div>","null","","",""
"","","","","","image-keyboard-response","18","2.0.0","67337","ph8yy58z5nz","1903","stimuli/9_150.jpg","f","response","f","true"
"","","","","","html-keyboard-response","19","2.0.0","67858","ph8yy58z5nz","null","<p style=""border: 5px solid green;"">Correct!</p>","null","","",""
"","","","","","html-keyboard-response","20","2.0.0","68871","ph8yy58z5nz","null","<div style=""font-size: 75px;"">+</div>","null","","",""
"","","","","","image-keyboard-response","21","2.0.0","73223","ph8yy58z5nz","4344","stimuli/24_150.jpg","f","response","f","true"
"","","","","","html-keyboard-response","22","2.0.0","73733","ph8yy58z5nz","null","<p style=""border: 5px solid green;"">Correct!</p>","null","","",""
"","","","","","html-keyboard-response","23","2.0.0","74741","ph8yy58z5nz","null","<div style=""font-size: 75px;"">+</div>","null","","",""
"","","","","","image-keyboard-response","24","2.0.0","76700","ph8yy58z5nz","1951","stimuli/8_0.jpg","f","response","f","true"
"","","","","","html-keyboard-response","25","2.0.0","77213","ph8yy58z5nz","null","<p style=""border: 5px solid green;"">Correct!</p>","null","","",""
"","","","","","html-keyboard-response","26","2.0.0","78233","ph8yy58z5nz","null","<div style=""font-size: 75px;"">+</div>","null","","",""
"","","","","","image-keyboard-response","27","2.0.0","91409","ph8yy58z5nz","13167","stimuli/31_150_R.jpg","j","response","j","true"
"","","","","","html-keyboard-response","28","2.0.0","91923","ph8yy58z5nz","null","<p style=""border: 5px solid green;"">Correct!</p>","null","","",""
"","","","","","html-keyboard-response","29","2.0.0","92932","ph8yy58z5nz","null","<div style=""font-size: 75px;"">+</div>","null","","",""
"","","","","","image-keyboard-response","30","2.0.0","100175","ph8yy58z5nz","7231","stimuli/45_100.jpg","j","response","f","false"
"","","","","","html-keyboard-response","31","2.0.0","100692","ph8yy58z5nz","null","<p style=""border: 5px solid red;"">Incorrect.</p>","null","","",""
"","","","","","html-keyboard-response","32","2.0.0","101700","ph8yy58z5nz","null","<div style=""font-size: 75px;"">+</div>","null","","",""
"","","","","","image-keyboard-response","33","2.0.0","108718","ph8yy58z5nz","7009","stimuli/16_0_R.jpg","f","response","j","false"
"","","","","","html-keyboard-response","34","2.0.0","109231","ph8yy58z5nz","null","<p style=""border: 5px solid red;"">Incorrect.</p>","null","","",""
"","","","","","html-keyboard-response","35","2.0.0","110235","ph8yy58z5nz","null","<div style=""font-size: 75px;"">+</div>","null","","",""
"","","","","","image-keyboard-response","36","2.0.0","112994","ph8yy58z5nz","2750","stimuli/35_100.jpg","f","response","f","true"
"","","","","","html-keyboard-response","37","2.0.0","113514","ph8yy58z5nz","null","<p style=""border: 5px solid green;"">Correct!</p>","null","","",""
"","","","","","html-keyboard-response","38","2.0.0","114533","ph8yy58z5nz","null","<div style=""font-size: 75px;"">+</div>","null","","",""
"","","","","","image-keyboard-response","39","2.0.0","116298","ph8yy58z5nz","1756","stimuli/7_150_R.jpg","f","response","j","false"
"","","","","","html-keyboard-response","40","2.0.0","116809","ph8yy58z5nz","null","<p style=""border: 5px solid red;"">Incorrect.</p>","null","","",""
"","","","","","html-keyboard-response","41","2.0.0","117822","ph8yy58z5nz","null","<div style=""font-size: 75px;"">+</div>","null","","",""
"","","","","","image-keyboard-response","42","2.0.0","123220","ph8yy58z5nz","5388","stimuli/14_150_R.jpg","j","response","j","true"
"","","","","","html-keyboard-response","43","2.0.0","123742","ph8yy58z5nz","null","<p style=""border: 5px solid green;"">Correct!</p>","null","","",""
"","","","","","html-keyboard-response","44","2.0.0","124763","ph8yy58z5nz","null","<div style=""font-size: 75px;"">+</div>","null","","",""
"","","","","","image-keyboard-response","45","2.0.0","129508","ph8yy58z5nz","4737","stimuli/30_150.jpg","f","response","f","true"
"","","","","","html-keyboard-response","46","2.0.0","130029","ph8yy58z5nz","null","<p style=""border: 5px solid green;"">Correct!</p>","null","","",""
"","","","","","html-keyboard-response","47","2.0.0","131038","ph8yy58z5nz","null","<div style=""font-size: 75px;"">+</div>","null","","",""
"","","","","","image-keyboard-response","48","2.0.0","134815","ph8yy58z5nz","3769","stimuli/28_150_R.jpg","f","response","j","false"
"","","","","","html-keyboard-response","49","2.0.0","135329","ph8yy58z5nz","null","<p style=""border: 5px solid red;"">Incorrect.</p>","null","","",""
"","","","","","html-keyboard-response","50","2.0.0","136350","ph8yy58z5nz","null","<div style=""font-size: 75px;"">+</div>","null","","",""
"","","","","","image-keyboard-response","51","2.0.0","142851","ph8yy58z5nz","6492","stimuli/23_100.jpg","f","response","f","true"
"","","","","","html-keyboard-response","52","2.0.0","143368","ph8yy58z5nz","null","<p style=""border: 5px solid green;"">Correct!</p>","null","","",""
"","","","","","html-keyboard-response","53","2.0.0","144387","ph8yy58z5nz","null","<div style=""font-size: 75px;"">+</div>","null","","",""
"","","","","","image-keyboard-response","54","2.0.0","147251","ph8yy58z5nz","2856","stimuli/41_150.jpg","f","response","f","true"
"","","","","","html-keyboard-response","55","2.0.0","147759","ph8yy58z5nz","null","<p style=""border: 5px solid green;"">Correct!</p>","null","","",""
"","","","","","html-keyboard-response","56","2.0.0","148765","ph8yy58z5nz","null","<div style=""font-size: 75px;"">+</div>","null","","",""
"","","","","","image-keyboard-response","57","2.0.0","150422","ph8yy58z5nz","1653","stimuli/40_0.jpg","f","response","f","true"
"","","","","","html-keyboard-response","58","2.0.0","150932","ph8yy58z5nz","null","<p style=""border: 5px solid green;"">Correct!</p>","null","","",""
"","","","","","html-keyboard-response","59","2.0.0","151945","ph8yy58z5nz","null","<div style=""font-size: 75px;"">+</div>","null","","",""
"","","","","","image-keyboard-response","60","2.0.0","155535","ph8yy58z5nz","3578","stimuli/29_50.jpg","f","response","f","true"
"","","","","","html-keyboard-response","61","2.0.0","156050","ph8yy58z5nz","null","<p style=""border: 5px solid green;"">Correct!</p>","null","","",""
"","","","","","html-keyboard-response","62","2.0.0","157068","ph8yy58z5nz","null","<div style=""font-size: 75px;"">+</div>","null","","",""
"","","","","","image-keyboard-response","63","2.0.0","161322","ph8yy58z5nz","4245","stimuli/47_100_R.jpg","j","response","j","true"
"","","","","","html-keyboard-response","64","2.0.0","161830","ph8yy58z5nz","null","<p style=""border: 5px solid green;"">Correct!</p>","null","","",""
"","","","","","html-keyboard-response","65","2.0.0","162848","ph8yy58z5nz","null","<div style=""font-size: 75px;"">+</div>","null","","",""
"","","","","","image-keyboard-response","66","2.0.0","166373","ph8yy58z5nz","3516","stimuli/20_50_R.jpg","j","response","j","true"
"","","","","","html-keyboard-response","67","2.0.0","166880","ph8yy58z5nz","null","<p style=""border: 5px solid green;"">Correct!</p>","null","","",""
"","","","","","html-keyboard-response","68","2.0.0","167886","ph8yy58z5nz","null","<div style=""font-size: 75px;"">+</div>","null","","",""
"","","","","","image-keyboard-response","69","2.0.0","171827","ph8yy58z5nz","3932","stimuli/2_100_R.jpg","j","response","j","true"
"","","","","","html-keyboard-response","70","2.0.0","172341","ph8yy58z5nz","null","<p style=""border: 5px solid green;"">Correct!</p>","null","","",""
"","","","","","html-keyboard-response","71","2.0.0","173356","ph8yy58z5nz","null","<div style=""font-size: 75px;"">+</div>","null","","",""
"","","","","","image-keyboard-response","72","2.0.0","177604","ph8yy58z5nz","4236","stimuli/34_150_R.jpg","j","response","j","true"
"","","","","","html-keyboard-response","73","2.0.0","178118","ph8yy58z5nz","null","<p style=""border: 5px solid green;"">Correct!</p>","null","","",""
"","","","","","html-keyboard-response","74","2.0.0","179128","ph8yy58z5nz","null","<div style=""font-size: 75px;"">+</div>","null","","",""
"","","","","","image-keyboard-response","75","2.0.0","181134","ph8yy58z5nz","1999","stimuli/41_0_R.jpg","j","response","j","true"
"","","","","","html-keyboard-response","76","2.0.0","181641","ph8yy58z5nz","null","<p style=""border: 5px solid green;"">Correct!</p>","null","","",""
"","","","","","html-keyboard-response","77","2.0.0","182657","ph8yy58z5nz","null","<div style=""font-size: 75px;"">+</div>","null","","",""
"","","","","","image-keyboard-response","78","2.0.0","184786","ph8yy58z5nz","2123","stimuli/7_0_R.jpg","j","response","j","true"
"","","","","","html-keyboard-response","79","2.0.0","185304","ph8yy58z5nz","null","<p style=""border: 5px solid green;"">Correct!</p>","null","","",""
"","","","","","html-keyboard-response","80","2.0.0","186315","ph8yy58z5nz","null","<div style=""font-size: 75px;"">+</div>","null","","",""
"","","","","","image-keyboard-response","81","2.0.0","194992","ph8yy58z5nz","8668","stimuli/48_100_R.jpg","j","response","j","true"
"","","","","","html-keyboard-response","82","2.0.0","195497","ph8yy58z5nz","null","<p style=""border: 5px solid green;"">Correct!</p>","null","","",""
"","","","","","html-keyboard-response","83","2.0.0","196518","ph8yy58z5nz","null","<div style=""font-size: 75px;"">+</div>","null","","",""
"","","","","","image-keyboard-response","84","2.0.0","198588","ph8yy58z5nz","2062","stimuli/27_0_R.jpg","j","response","j","true"
"","","","","","html-keyboard-response","85","2.0.0","199110","ph8yy58z5nz","null","<p style=""border: 5px solid green;"">Correct!</p>","null","","",""
"","","","","","html-keyboard-response","86","2.0.0","200129","ph8yy58z5nz","null","<div style=""font-size: 75px;"">+</div>","null","","",""
"","","","","","image-keyboard-response","87","2.0.0","203034","ph8yy58z5nz","2901","stimuli/20_150.jpg","j","response","f","false"
"","","","","","html-keyboard-response","88","2.0.0","203549","ph8yy58z5nz","null","<p style=""border: 5px solid red;"">Incorrect.</p>","null","","",""
"","","","","","html-keyboard-response","89","2.0.0","204554","ph8yy58z5nz","null","<div style=""font-size: 75px;"">+</div>","null","","",""
"","","","","","image-keyboard-response","90","2.0.0","205758","ph8yy58z5nz","1195","stimuli/1_0.jpg","f","response","f","true"
"","","","","","html-keyboard-response","91","2.0.0","206270","ph8yy58z5nz","null","<p style=""border: 5px solid green;"">Correct!</p>","null","","",""
"","","","","","html-keyboard-response","92","2.0.0","207281","ph8yy58z5nz","null","<div style=""font-size: 75px;"">+</div>","null","","",""
"","","","","","image-keyboard-response","93","2.0.0","208228","ph8yy58z5nz","942","stimuli/32_0.jpg","f","response","f","true"
"","","","","","html-keyboard-response","94","2.0.0","208733","ph8yy58z5nz","null","<p style=""border: 5px solid green;"">Correct!</p>","null","","",""
"","","","","","html-keyboard-response","95","2.0.0","209739","ph8yy58z5nz","null","<div style=""font-size: 75px;"">+</div>","null","","",""
"","","","","","image-keyboard-response","96","2.0.0","213030","ph8yy58z5nz","3282","stimuli/40_100.jpg","f","response","f","true"
"","","","","","html-keyboard-response","97","2.0.0","213547","ph8yy58z5nz","null","<p style=""border: 5px solid green;"">Correct!</p>","null","","",""
"","","","","","html-keyboard-response","98","2.0.0","214565","ph8yy58z5nz","null","<div style=""font-size: 75px;"">+</div>","null","","",""
"","","","","","image-keyboard-response","99","2.0.0","217225","ph8yy58z5nz","2652","stimuli/36_50.jpg","f","response","f","true"
"","","","","","html-keyboard-response","100","2.0.0","217738","ph8yy58z5nz","null","<p style=""border: 5px solid green;"">Correct!</p>","null","","",""
"","","","","","html-keyboard-response","101","2.0.0","218754","ph8yy58z5nz","null","<div style=""font-size: 75px;"">+</div>","null","","",""
"","","","","","image-keyboard-response","102","2.0.0","224359","ph8yy58z5nz","5600","stimuli/23_150_R.jpg","j","response","j","true"
"","","","","","html-keyboard-response","103","2.0.0","224871","ph8yy58z5nz","null","<p style=""border: 5px solid green;"">Correct!</p>","null","","",""
"","","","","","html-keyboard-response","104","2.0.0","225879","ph8yy58z5nz","null","<div style=""font-size: 75px;"">+</div>","null","","",""
"","","","","","image-keyboard-response","105","2.0.0","226942","ph8yy58z5nz","1058","stimuli/34_0.jpg","f","response","f","true"
"","","","","","html-keyboard-response","106","2.0.0","227452","ph8yy58z5nz","null","<p style=""border: 5px solid green;"">Correct!</p>","null","","",""
"","","","","","html-keyboard-response","107","2.0.0","228468","ph8yy58z5nz","null","<div style=""font-size: 75px;"">+</div>","null","","",""
"","","","","","image-keyboard-response","108","2.0.0","232137","ph8yy58z5nz","3662","stimuli/35_150_R.jpg","j","response","j","true"
"","","","","","html-keyboard-response","109","2.0.0","232649","ph8yy58z5nz","null","<p style=""border: 5px solid green;"">Correct!</p>","null","","",""
"","","","","","html-keyboard-response","110","2.0.0","233664","ph8yy58z5nz","null","<div style=""font-size: 75px;"">+</div>","null","","",""
"","","","","","image-keyboard-response","111","2.0.0","237126","ph8yy58z5nz","3450","stimuli/12_100_R.jpg","j","response","j","true"
"","","","","","html-keyboard-response","112","2.0.0","237639","ph8yy58z5nz","null","<p style=""border: 5px solid green;"">Correct!</p>","null","","",""
"","","","","","html-keyboard-response","113","2.0.0","238654","ph8yy58z5nz","null","<div style=""font-size: 75px;"">+</div>","null","","",""
"","","","","","image-keyboard-response","114","2.0.0","240730","ph8yy58z5nz","2068","stimuli/21_50.jpg","f","response","f","true"
"","","","","","html-keyboard-response","115","2.0.0","241238","ph8yy58z5nz","null","<p style=""border: 5px solid green;"">Correct!</p>","null","","",""
"","","","","","html-keyboard-response","116","2.0.0","242244","ph8yy58z5nz","null","<div style=""font-size: 75px;"">+</div>","null","","",""
"","","","","","image-keyboard-response","117","2.0.0","247769","ph8yy58z5nz","5517","stimuli/10_150_R.jpg","j","response","j","true"
"","","","","","html-keyboard-response","118","2.0.0","248277","ph8yy58z5nz","null","<p style=""border: 5px solid green;"">Correct!</p>","null","","",""
"","","","","","html-keyboard-response","119","2.0.0","249293","ph8yy58z5nz","null","<div style=""font-size: 75px;"">+</div>","null","","",""
"","","","","","image-keyboard-response","120","2.0.0","255631","ph8yy58z5nz","6333","stimuli/43_100_R.jpg","j","response","j","true"
"","","","","","html-keyboard-response","121","2.0.0","256149","ph8yy58z5nz","null","<p style=""border: 5px solid green;"">Correct!</p>","null","","",""
"","","","","","html-keyboard-response","122","2.0.0","257159","ph8yy58z5nz","null","<div style=""font-size: 75px;"">+</div>","null","","",""
"","","","","","image-keyboard-response","123","2.0.0","259948","ph8yy58z5nz","2732","stimuli/31_0_R.jpg","j","response","j","true"
"","","","","","html-keyboard-response","124","2.0.0","260458","ph8yy58z5nz","null","<p style=""border: 5px solid green;"">Correct!</p>","null","","",""
"","","","","","html-keyboard-response","125","2.0.0","261476","ph8yy58z5nz","null","<div style=""font-size: 75px;"">+</div>","null","","",""
"","","","","","image-keyboard-response","126","2.0.0","263542","ph8yy58z5nz","2056","stimuli/11_0_R.jpg","j","response","j","true"
"","","","","","html-keyboard-response","127","2.0.0","264057","ph8yy58z5nz","null","<p style=""border: 5px solid green;"">Correct!</p>","null","","",""
"","","","","","html-keyboard-response","128","2.0.0","265075","ph8yy58z5nz","null","<div style=""font-size: 75px;"">+</div>","null","","",""
"","","","","","image-keyboard-response","129","2.0.0","266585","ph8yy58z5nz","1499","stimuli/13_50.jpg","f","response","f","true"
"","","","","","html-keyboard-response","130","2.0.0","267103","ph8yy58z5nz","null","<p style=""border: 5px solid green;"">Correct!</p>","null","","",""
"","","","","","html-keyboard-response","131","2.0.0","268111","ph8yy58z5nz","null","<div style=""font-size: 75px;"">+</div>","null","","",""
"","","","","","image-keyboard-response","132","2.0.0","272594","ph8yy58z5nz","4475","stimuli/28_100.jpg","f","response","f","true"
"","","","","","html-keyboard-response","133","2.0.0","273104","ph8yy58z5nz","null","<p style=""border: 5px solid green;"">Correct!</p>","null","","",""
"","","","","","html-keyboard-response","134","2.0.0","274121","ph8yy58z5nz","null","<div style=""font-size: 75px;"">+</div>","null","","",""
"","","","","","image-keyboard-response","135","2.0.0","275855","ph8yy58z5nz","1727","stimuli/24_50_R.jpg","j","response","j","true"
"","","","","","html-keyboard-response","136","2.0.0","276366","ph8yy58z5nz","null","<p style=""border: 5px solid green;"">Correct!</p>","null","","",""
"","","","","","html-keyboard-response","137","2.0.0","277387","ph8yy58z5nz","null","<div style=""font-size: 75px;"">+</div>","null","","",""
"","","","","","image-keyboard-response","138","2.0.0","282470","ph8yy58z5nz","5076","stimuli/48_150.jpg","j","response","f","false"
"","","","","","html-keyboard-response","139","2.0.0","282978","ph8yy58z5nz","null","<p style=""border: 5px solid red;"">Incorrect.</p>","null","","",""
"","","","","","html-keyboard-response","140","2.0.0","283999","ph8yy58z5nz","null","<div style=""font-size: 75px;"">+</div>","null","","",""
"","","","","","image-keyboard-response","141","2.0.0","285049","ph8yy58z5nz","1043","stimuli/44_50_R.jpg","j","response","j","true"
"","","","","","html-keyboard-response","142","2.0.0","285559","ph8yy58z5nz","null","<p style=""border: 5px solid green;"">Correct!</p>","null","","",""
"","","","","","html-keyboard-response","143","2.0.0","286573","ph8yy58z5nz","null","<div style=""font-size: 75px;"">+</div>","null","","",""
"","","","","","image-keyboard-response","144","2.0.0","290841","ph8yy58z5nz","4258","stimuli/10_150.jpg","f","response","f","true"
"","","","","","html-keyboard-response","145","2.0.0","291362","ph8yy58z5nz","null","<p style=""border: 5px solid green;"">Correct!</p>","null","","",""
"","","","","","html-keyboard-response","146","2.0.0","292377","ph8yy58z5nz","null","<div style=""font-size: 75px;"">+</div>","null","","",""
"","","","","","image-keyboard-response","147","2.0.0","296399","ph8yy58z5nz","4013","stimuli/6_150_R.jpg","j","response","j","true"
"","","","","","html-keyboard-response","148","2.0.0","296913","ph8yy58z5nz","null","<p style=""border: 5px solid green;"">Correct!</p>","null","","",""
"","","","","","html-keyboard-response","149","2.0.0","326932","ph8yy58z5nz","null","<p> Take a break! Experiment continues in 30 seconds . </p>","null","","",""
"","","","","","html-keyboard-response","150","2.0.0","327945","ph8yy58z5nz","null","<div style=""font-size: 75px;"">+</div>","null","","",""
"","","","","","image-keyboard-response","151","2.0.0","333187","ph8yy58z5nz","5233","stimuli/42_100.jpg","j","response","f","false"
"","","","","","html-keyboard-response","152","2.0.0","333699","ph8yy58z5nz","null","<p style=""border: 5px solid red;"">Incorrect.</p>","null","","",""
"","","","","","html-keyboard-response","153","2.0.0","334707","ph8yy58z5nz","null","<div style=""font-size: 75px;"">+</div>","null","","",""
"","","","","","image-keyboard-response","154","2.0.0","335687","ph8yy58z5nz","972","stimuli/47_50_R.jpg","j","response","j","true"
"","","","","","html-keyboard-response","155","2.0.0","336208","ph8yy58z5nz","null","<p style=""border: 5px solid green;"">Correct!</p>","null","","",""
"","","","","","html-keyboard-response","156","2.0.0","337215","ph8yy58z5nz","null","<div style=""font-size: 75px;"">+</div>","null","","",""
"","","","","","image-keyboard-response","157","2.0.0","339391","ph8yy58z5nz","2166","stimuli/28_50_R.jpg","j","response","j","true"
"","","","","","html-keyboard-response","158","2.0.0","339912","ph8yy58z5nz","null","<p style=""border: 5px solid green;"">Correct!</p>","null","","",""
"","","","","","html-keyboard-response","159","2.0.0","340933","ph8yy58z5nz","null","<div style=""font-size: 75px;"">+</div>","null","","",""
"","","","","","image-keyboard-response","160","2.0.0","347416","ph8yy58z5nz","6473","stimuli/16_150.jpg","f","response","f","true"
"","","","","","html-keyboard-response","161","2.0.0","347922","ph8yy58z5nz","null","<p style=""border: 5px solid green;"">Correct!</p>","null","","",""
"","","","","","html-keyboard-response","162","2.0.0","348928","ph8yy58z5nz","null","<div style=""font-size: 75px;"">+</div>","null","","",""
"","","","","","image-keyboard-response","163","2.0.0","350343","ph8yy58z5nz","1403","stimuli/22_0.jpg","f","response","f","true"
"","","","","","html-keyboard-response","164","2.0.0","350857","ph8yy58z5nz","null","<p style=""border: 5px solid green;"">Correct!</p>","null","","",""
"","","","","","html-keyboard-response","165","2.0.0","351873","ph8yy58z5nz","null","<div style=""font-size: 75px;"">+</div>","null","","",""
"","","","","","image-keyboard-response","166","2.0.0","352877","ph8yy58z5nz","998","stimuli/38_0.jpg","f","response","f","true"
"","","","","","html-keyboard-response","167","2.0.0","353398","ph8yy58z5nz","null","<p style=""border: 5px solid green;"">Correct!</p>","null","","",""
"","","","","","html-keyboard-response","168","2.0.0","354415","ph8yy58z5nz","null","<div style=""font-size: 75px;"">+</div>","null","","",""
"","","","","","image-keyboard-response","169","2.0.0","356549","ph8yy58z5nz","2127","stimuli/43_50.jpg","f","response","f","true"
"","","","","","html-keyboard-response","170","2.0.0","357061","ph8yy58z5nz","null","<p style=""border: 5px solid green;"">Correct!</p>","null","","",""
"","","","","","html-keyboard-response","171","2.0.0","358073","ph8yy58z5nz","null","<div style=""font-size: 75px;"">+</div>","null","","",""
"","","","","","image-keyboard-response","172","2.0.0","359017","ph8yy58z5nz","934","stimuli/13_50_R.jpg","j","response","j","true"
"","","","","","html-keyboard-response","173","2.0.0","359528","ph8yy58z5nz","null","<p style=""border: 5px solid green;"">Correct!</p>","null","","",""
"","","","","","html-keyboard-response","174","2.0.0","360545","ph8yy58z5nz","null","<div style=""font-size: 75px;"">+</div>","null","","",""
"","","","","","image-keyboard-response","175","2.0.0","363084","ph8yy58z5nz","2518","stimuli/8_50.jpg","f","response","f","true"
"","","","","","html-keyboard-response","176","2.0.0","363599","ph8yy58z5nz","null","<p style=""border: 5px solid green;"">Correct!</p>","null","","",""
"","","","","","html-keyboard-response","177","2.0.0","364612","ph8yy58z5nz","null","<div style=""font-size: 75px;"">+</div>","null","","",""
"","","","","","image-keyboard-response","178","2.0.0","370092","ph8yy58z5nz","5472","stimuli/5_100.jpg","f","response","f","true"
"","","","","","html-keyboard-response","179","2.0.0","370598","ph8yy58z5nz","null","<p style=""border: 5px solid green;"">Correct!</p>","null","","",""
"","","","","","html-keyboard-response","180","2.0.0","371613","ph8yy58z5nz","null","<div style=""font-size: 75px;"">+</div>","null","","",""
"","","","","","image-keyboard-response","181","2.0.0","375943","ph8yy58z5nz","4326","stimuli/45_100_R.jpg","j","response","j","true"
"","","","","","html-keyboard-response","182","2.0.0","376452","ph8yy58z5nz","null","<p style=""border: 5px solid green;"">Correct!</p>","null","","",""
"","","","","","html-keyboard-response","183","2.0.0","377459","ph8yy58z5nz","null","<div style=""font-size: 75px;"">+</div>","null","","",""
"","","","","","image-keyboard-response","184","2.0.0","379625","ph8yy58z5nz","2159","stimuli/19_0_R.jpg","j","response","j","true"
"","","","","","html-keyboard-response","185","2.0.0","380130","ph8yy58z5nz","null","<p style=""border: 5px solid green;"">Correct!</p>","null","","",""
"","","","","","html-keyboard-response","186","2.0.0","381135","ph8yy58z5nz","null","<div style=""font-size: 75px;"">+</div>","null","","",""
"","","","","","image-keyboard-response","187","2.0.0","382751","ph8yy58z5nz","1610","stimuli/48_50.jpg","f","response","f","true"
"","","","","","html-keyboard-response","188","2.0.0","383270","ph8yy58z5nz","null","<p style=""border: 5px solid green;"">Correct!</p>","null","","",""
"","","","","","html-keyboard-response","189","2.0.0","384279","ph8yy58z5nz","null","<div style=""font-size: 75px;"">+</div>","null","","",""
"","","","","","image-keyboard-response","190","2.0.0","385380","ph8yy58z5nz","1090","stimuli/18_0_R.jpg","j","response","j","true"
"","","","","","html-keyboard-response","191","2.0.0","385885","ph8yy58z5nz","null","<p style=""border: 5px solid green;"">Correct!</p>","null","","",""
"","","","","","html-keyboard-response","192","2.0.0","386904","ph8yy58z5nz","null","<div style=""font-size: 75px;"">+</div>","null","","",""
"","","","","","image-keyboard-response","193","2.0.0","390036","ph8yy58z5nz","3127","stimuli/11_150.jpg","f","response","f","true"
"","","","","","html-keyboard-response","194","2.0.0","390554","ph8yy58z5nz","null","<p style=""border: 5px solid green;"">Correct!</p>","null","","",""
"","","","","","html-keyboard-response","195","2.0.0","391568","ph8yy58z5nz","null","<div style=""font-size: 75px;"">+</div>","null","","",""
"","","","","","image-keyboard-response","196","2.0.0","393400","ph8yy58z5nz","1824","stimuli/9_50_R.jpg","j","response","j","true"
"","","","","","html-keyboard-response","197","2.0.0","393919","ph8yy58z5nz","null","<p style=""border: 5px solid green;"">Correct!</p>","null","","",""
"","","","","","html-keyboard-response","198","2.0.0","394929","ph8yy58z5nz","null","<div style=""font-size: 75px;"">+</div>","null","","",""
"","","","","","image-keyboard-response","199","2.0.0","396790","ph8yy58z5nz","1852","stimuli/37_50.jpg","f","response","f","true"
"","","","","","html-keyboard-response","200","2.0.0","397302","ph8yy58z5nz","null","<p style=""border: 5px solid green;"">Correct!</p>","null","","",""
"","","","","","html-keyboard-response","201","2.0.0","398314","ph8yy58z5nz","null","<div style=""font-size: 75px;"">+</div>","null","","",""
"","","","","","image-keyboard-response","202","2.0.0","399216","ph8yy58z5nz","897","stimuli/12_0.jpg","f","response","f","true"
"","","","","","html-keyboard-response","203","2.0.0","399735","ph8yy58z5nz","null","<p style=""border: 5px solid green;"">Correct!</p>","null","","",""
"","","","","","html-keyboard-response","204","2.0.0","400751","ph8yy58z5nz","null","<div style=""font-size: 75px;"">+</div>","null","","",""
"","","","","","image-keyboard-response","205","2.0.0","401579","ph8yy58z5nz","818","stimuli/47_0.jpg","f","response","f","true"
"","","","","","html-keyboard-response","206","2.0.0","402089","ph8yy58z5nz","null","<p style=""border: 5px solid green;"">Correct!</p>","null","","",""
"","","","","","html-keyboard-response","207","2.0.0","403103","ph8yy58z5nz","null","<div style=""font-size: 75px;"">+</div>","null","","",""
"","","","","","image-keyboard-response","208","2.0.0","404283","ph8yy58z5nz","1171","stimuli/24_0_R.jpg","j","response","j","true"
"","","","","","html-keyboard-response","209","2.0.0","404794","ph8yy58z5nz","null","<p style=""border: 5px solid green;"">Correct!</p>","null","","",""
"","","","","","html-keyboard-response","210","2.0.0","405814","ph8yy58z5nz","null","<div style=""font-size: 75px;"">+</div>","null","","",""
"","","","","","image-keyboard-response","211","2.0.0","407010","ph8yy58z5nz","1188","stimuli/38_0_R.jpg","j","response","j","true"
"","","","","","html-keyboard-response","212","2.0.0","407522","ph8yy58z5nz","null","<p style=""border: 5px solid green;"">Correct!</p>","null","","",""
"","","","","","html-keyboard-response","213","2.0.0","408531","ph8yy58z5nz","null","<div style=""font-size: 75px;"">+</div>","null","","",""
"","","","","","image-keyboard-response","214","2.0.0","409336","ph8yy58z5nz","796","stimuli/21_150.jpg","j","response","f","false"
"","","","","","html-keyboard-response","215","2.0.0","409848","ph8yy58z5nz","null","<p style=""border: 5px solid red;"">Incorrect.</p>","null","","",""
"","","","","","html-keyboard-response","216","2.0.0","410858","ph8yy58z5nz","null","<div style=""font-size: 75px;"">+</div>","null","","",""
"","","","","","image-keyboard-response","217","2.0.0","414127","ph8yy58z5nz","3259","stimuli/5_50_R.jpg","j","response","j","true"
"","","","","","html-keyboard-response","218","2.0.0","414645","ph8yy58z5nz","null","<p style=""border: 5px solid green;"">Correct!</p>","null","","",""
"","","","","","html-keyboard-response","219","2.0.0","415667","ph8yy58z5nz","null","<div style=""font-size: 75px;"">+</div>","null","","",""
"","","","","","image-keyboard-response","220","2.0.0","417604","ph8yy58z5nz","1930","stimuli/29_100.jpg","f","response","f","true"
"","","","","","html-keyboard-response","221","2.0.0","418120","ph8yy58z5nz","null","<p style=""border: 5px solid green;"">Correct!</p>","null","","",""
"","","","","","html-keyboard-response","222","2.0.0","419136","ph8yy58z5nz","null","<div style=""font-size: 75px;"">+</div>","null","","",""
"","","","","","image-keyboard-response","223","2.0.0","421387","ph8yy58z5nz","2244","stimuli/31_100_R.jpg","j","response","j","true"
"","","","","","html-keyboard-response","224","2.0.0","421904","ph8yy58z5nz","null","<p style=""border: 5px solid green;"">Correct!</p>","null","","",""
"","","","","","html-keyboard-response","225","2.0.0","422919","ph8yy58z5nz","null","<div style=""font-size: 75px;"">+</div>","null","","",""
"","","","","","image-keyboard-response","226","2.0.0","428252","ph8yy58z5nz","5323","stimuli/15_100_R.jpg","j","response","j","true"
"","","","","","html-keyboard-response","227","2.0.0","428766","ph8yy58z5nz","null","<p style=""border: 5px solid green;"">Correct!</p>","null","","",""
"","","","","","html-keyboard-response","228","2.0.0","429775","ph8yy58z5nz","null","<div style=""font-size: 75px;"">+</div>","null","","",""
"","","","","","image-keyboard-response","229","2.0.0","433675","ph8yy58z5nz","3896","stimuli/42_100_R.jpg","j","response","j","true"
"","","","","","html-keyboard-response","230","2.0.0","434196","ph8yy58z5nz","null","<p style=""border: 5px solid green;"">Correct!</p>","null","","",""
"","","","","","html-keyboard-response","231","2.0.0","435208","ph8yy58z5nz","null","<div style=""font-size: 75px;"">+</div>","null","","",""
"","","","","","image-keyboard-response","232","2.0.0","436940","ph8yy58z5nz","1719","stimuli/20_150_R.jpg","j","response","j","true"
"","","","","","html-keyboard-response","233","2.0.0","437453","ph8yy58z5nz","null","<p style=""border: 5px solid green;"">Correct!</p>","null","","",""
"","","","","","html-keyboard-response","234","2.0.0","438471","ph8yy58z5nz","null","<div style=""font-size: 75px;"">+</div>","null","","",""
"","","","","","image-keyboard-response","235","2.0.0","441384","ph8yy58z5nz","2908","stimuli/1_100.jpg","f","response","f","true"
"","","","","","html-keyboard-response","236","2.0.0","441891","ph8yy58z5nz","null","<p style=""border: 5px solid green;"">Correct!</p>","null","","",""
"","","","","","html-keyboard-response","237","2.0.0","442902","ph8yy58z5nz","null","<div style=""font-size: 75px;"">+</div>","null","","",""
"","","","","","image-keyboard-response","238","2.0.0","443688","ph8yy58z5nz","781","stimuli/39_0.jpg","f","response","f","true"
"","","","","","html-keyboard-response","239","2.0.0","444205","ph8yy58z5nz","null","<p style=""border: 5px solid green;"">Correct!</p>","null","","",""
"","","","","","html-keyboard-response","240","2.0.0","445213","ph8yy58z5nz","null","<div style=""font-size: 75px;"">+</div>","null","","",""
"","","","","","image-keyboard-response","241","2.0.0","446543","ph8yy58z5nz","1326","stimuli/6_50_R.jpg","j","response","j","true"
"","","","","","html-keyboard-response","242","2.0.0","447055","ph8yy58z5nz","null","<p style=""border: 5px solid green;"">Correct!</p>","null","","",""
"","","","","","html-keyboard-response","243","2.0.0","448068","ph8yy58z5nz","null","<div style=""font-size: 75px;"">+</div>","null","","",""
"","","","","","image-keyboard-response","244","2.0.0","451011","ph8yy58z5nz","2939","stimuli/45_50.jpg","f","response","f","true"
"","","","","","html-keyboard-response","245","2.0.0","451529","ph8yy58z5nz","null","<p style=""border: 5px solid green;"">Correct!</p>","null","","",""
"","","","","","html-keyboard-response","246","2.0.0","452547","ph8yy58z5nz","null","<div style=""font-size: 75px;"">+</div>","null","","",""
"","","","","","image-keyboard-response","247","2.0.0","455001","ph8yy58z5nz","2446","stimuli/27_50.jpg","f","response","f","true"
"","","","","","html-keyboard-response","248","2.0.0","455518","ph8yy58z5nz","null","<p style=""border: 5px solid green;"">Correct!</p>","null","","",""
"","","","","","html-keyboard-response","249","2.0.0","456524","ph8yy58z5nz","null","<div style=""font-size: 75px;"">+</div>","null","","",""
"","","","","","image-keyboard-response","250","2.0.0","457383","ph8yy58z5nz","851","stimuli/47_0_R.jpg","j","response","j","true"
"","","","","","html-keyboard-response","251","2.0.0","457904","ph8yy58z5nz","null","<p style=""border: 5px solid green;"">Correct!</p>","null","","",""
"","","","","","html-keyboard-response","252","2.0.0","458923","ph8yy58z5nz","null","<div style=""font-size: 75px;"">+</div>","null","","",""
"","","","","","image-keyboard-response","253","2.0.0","461728","ph8yy58z5nz","2797","stimuli/8_100_R.jpg","j","response","j","true"
"","","","","","html-keyboard-response","254","2.0.0","462235","ph8yy58z5nz","null","<p style=""border: 5px solid green;"">Correct!</p>","null","","",""
"","","","","","html-keyboard-response","255","2.0.0","463252","ph8yy58z5nz","null","<div style=""font-size: 75px;"">+</div>","null","","",""
"","","","","","image-keyboard-response","256","2.0.0","464976","ph8yy58z5nz","1713","stimuli/27_100.jpg","f","response","f","true"
"","","","","","html-keyboard-response","257","2.0.0","465494","ph8yy58z5nz","null","<p style=""border: 5px solid green;"">Correct!</p>","null","","",""
"","","","","","html-keyboard-response","258","2.0.0","466509","ph8yy58z5nz","null","<div style=""font-size: 75px;"">+</div>","null","","",""
"","","","","","image-keyboard-response","259","2.0.0","468266","ph8yy58z5nz","1749","stimuli/6_50.jpg","f","response","f","true"
"","","","","","html-keyboard-response","260","2.0.0","468775","ph8yy58z5nz","null","<p style=""border: 5px solid green;"">Correct!</p>","null","","",""
"","","","","","html-keyboard-response","261","2.0.0","469795","ph8yy58z5nz","null","<div style=""font-size: 75px;"">+</div>","null","","",""
"","","","","","image-keyboard-response","262","2.0.0","470561","ph8yy58z5nz","757","stimuli/45_50_R.jpg","j","response","j","true"
"","","","","","html-keyboard-response","263","2.0.0","471076","ph8yy58z5nz","null","<p style=""border: 5px solid green;"">Correct!</p>","null","","",""
"","","","","","html-keyboard-response","264","2.0.0","472092","ph8yy58z5nz","null","<div style=""font-size: 75px;"">+</div>","null","","",""
"","","","","","image-keyboard-response","265","2.0.0","473746","ph8yy58z5nz","1647","stimuli/21_100.jpg","f","response","f","true"
"","","","","","html-keyboard-response","266","2.0.0","474262","ph8yy58z5nz","null","<p style=""border: 5px solid green;"">Correct!</p>","null","","",""
"","","","","","html-keyboard-response","267","2.0.0","475279","ph8yy58z5nz","null","<div style=""font-size: 75px;"">+</div>","null","","",""
"","","","","","image-keyboard-response","268","2.0.0","477100","ph8yy58z5nz","1811","stimuli/18_50.jpg","f","response","f","true"
"","","","","","html-keyboard-response","269","2.0.0","477611","ph8yy58z5nz","null","<p style=""border: 5px solid green;"">Correct!</p>","null","","",""
"","","","","","html-keyboard-response","270","2.0.0","478628","ph8yy58z5nz","null","<div style=""font-size: 75px;"">+</div>","null","","",""
"","","","","","image-keyboard-response","271","2.0.0","479430","ph8yy58z5nz","794","stimuli/28_0.jpg","f","response","f","true"
"","","","","","html-keyboard-response","272","2.0.0","479937","ph8yy58z5nz","null","<p style=""border: 5px solid green;"">Correct!</p>","null","","",""
"","","","","","html-keyboard-response","273","2.0.0","480949","ph8yy58z5nz","null","<div style=""font-size: 75px;"">+</div>","null","","",""
"","","","","","image-keyboard-response","274","2.0.0","481608","ph8yy58z5nz","650","stimuli/21_50_R.jpg","j","response","j","true"
"","","","","","html-keyboard-response","275","2.0.0","482121","ph8yy58z5nz","null","<p style=""border: 5px solid green;"">Correct!</p>","null","","",""
"","","","","","html-keyboard-response","276","2.0.0","483129","ph8yy58z5nz","null","<div style=""font-size: 75px;"">+</div>","null","","",""
"","","","","","image-keyboard-response","277","2.0.0","484188","ph8yy58z5nz","1049","stimuli/18_100.jpg","f","response","f","true"
"","","","","","html-keyboard-response","278","2.0.0","484709","ph8yy58z5nz","null","<p style=""border: 5px solid green;"">Correct!</p>","null","","",""
"","","","","","html-keyboard-response","279","2.0.0","485724","ph8yy58z5nz","null","<div style=""font-size: 75px;"">+</div>","null","","",""
"","","","","","image-keyboard-response","280","2.0.0","487742","ph8yy58z5nz","2010","stimuli/33_100_R.jpg","j","response","j","true"
"","","","","","html-keyboard-response","281","2.0.0","488256","ph8yy58z5nz","null","<p style=""border: 5px solid green;"">Correct!</p>","null","","",""
"","","","","","html-keyboard-response","282","2.0.0","489263","ph8yy58z5nz","null","<div style=""font-size: 75px;"">+</div>","null","","",""
"","","","","","image-keyboard-response","283","2.0.0","492301","ph8yy58z5nz","3030","stimuli/48_150_R.jpg","f","response","j","false"
"","","","","","html-keyboard-response","284","2.0.0","492816","ph8yy58z5nz","null","<p style=""border: 5px solid red;"">Incorrect.</p>","null","","",""
"","","","","","html-keyboard-response","285","2.0.0","493831","ph8yy58z5nz","null","<div style=""font-size: 75px;"">+</div>","null","","",""
"","","","","","image-keyboard-response","286","2.0.0","494743","ph8yy58z5nz","905","stimuli/25_0.jpg","f","response","f","true"
"","","","","","html-keyboard-response","287","2.0.0","495251","ph8yy58z5nz","null","<p style=""border: 5px solid green;"">Correct!</p>","null","","",""
"","","","","","html-keyboard-response","288","2.0.0","496266","ph8yy58z5nz","null","<div style=""font-size: 75px;"">+</div>","null","","",""
"","","","","","image-keyboard-response","289","2.0.0","497801","ph8yy58z5nz","1527","stimuli/12_50_R.jpg","j","response","j","true"
"","","","","","html-keyboard-response","290","2.0.0","498309","ph8yy58z5nz","null","<p style=""border: 5px solid green;"">Correct!</p>","null","","",""
"","","","","","html-keyboard-response","291","2.0.0","499317","ph8yy58z5nz","null","<div style=""font-size: 75px;"">+</div>","null","","",""
"","","","","","image-keyboard-response","292","2.0.0","504746","ph8yy58z5nz","5425","stimuli/31_150.jpg","f","response","f","true"
"","","","","","html-keyboard-response","293","2.0.0","505257","ph8yy58z5nz","null","<p style=""border: 5px solid green;"">Correct!</p>","null","","",""
"","","","","","html-keyboard-response","294","2.0.0","507524","ph8yy58z5nz","2258","<p>Thank you for participating!</p><p>Please press space to answer our survey.</p>"," ","","",""
"","","","","","survey-html-form","295","null","644350","ph8yy58z5nz","136802","","{""response_1"":""Dim and vague; flat"",""response_2"":""Dim and vague; flat"",""response_3"":""No image at all, you only “know” that you are thinking of the object"",""response_4"":""No image at all, you only “know” that you are thinking of the object"",""response_5"":""Clear and lively"",""response_6"":""Moderately clear and lively"",""response_7"":""Moderately clear and lively"",""response_8"":""Dim and vague; flat"",""response_9"":""Clear and lively"",""response_10"":""No image at all, you only “know” that you are thinking of the object"",""response_11"":""Moderately clear and lively"",""response_12"":""Moderately clear and lively"",""response_13"":""Moderately clear and lively"",""response_14"":""Moderately clear and lively"",""response_15"":""Clear and lively"",""response_16"":""Moderately clear and lively""}","","",""
"","","","","","survey-html-form","296","null","689633","ph8yy58z5nz","45278","","{""age"":""21"",""gender"":""male"",""education"":""high-school"",""handedness"":""right"",""vision"":""normal"",""technical_difficulties"":"""",""knowledge_check"":""Likely testing our ability to create imagery in our head.""}","","",""
