"success","timeout","failed_images","failed_audio","failed_video","trial_type","trial_index","plugin_version","time_elapsed","random_id","rt","stimulus","response","task","correct_response","correct"
"true","false","[]","[]","[]","preload","0","2.0.0","14089","pht22x40vxj","","","","","",""
"true","","","","","fullscreen","1","2.0.0","16062","pht22x40vxj","969","","","","",""
"","","","","","html-keyboard-response","2","2.0.0","16721","pht22x40vxj","658","Welcome to the experiment. Press any key to begin.","b","","",""
"","","","","","survey-text","3","2.0.0","18746","pht22x40vxj","2021","","{""participant_id"":""  \t antelope""}","","",""
"","","","","","html-keyboard-response","4","2.0.0","21351","pht22x40vxj","2604","
        <p>Welcome to the experiment.</p>
        <p>In this task, you will see pairs of images.</p>
        <p>Your job is to determine whether the image on the right is a rotated version of the image on the left.</p>
        <p>Press the <strong>F</strong> key if the images are the same.</p>
        <p>Press the <strong>J</strong> key if the images are different.</p>
        <p>Press any key to begin.</p>
    ","h","","",""
"","","","","","html-keyboard-response","5","2.0.0","22354","pht22x40vxj","null","<div style=""font-size: 75px;"">+</div>","null","","",""
"","","","","","image-keyboard-response","6","2.0.0","24849","pht22x40vxj","2491","stimuli/46_50_R.jpg","j","response","j","true"
"","","","","","html-keyboard-response","7","2.0.0","25353","pht22x40vxj","null","<p style=""border: 5px solid green;"">Correct!</p>","null","","",""
"","","","","","html-keyboard-response","8","2.0.0","26356","pht22x40vxj","null","<div style=""font-size: 75px;"">+</div>","null","","",""
"","","","","","image-keyboard-response","9","2.0.0","27504","pht22x40vxj","1146","stimuli/34_50.jpg","j","response","f","false"
"","","","","","html-keyboard-response","10","2.0.0","28007","pht22x40vxj","null","<p style=""border: 5px solid red;"">Incorrect.</p>","null","","",""
"","","","","","html-keyboard-response","11","2.0.0","29010","pht22x40vxj","null","<div style=""font-size: 75px;"">+</div>","null","","",""
"","","","","","image-keyboard-response","12","2.0.0","31498","pht22x40vxj","2486","stimuli/41_0_R.jpg","f","response","j","false"
"","","","","","html-keyboard-response","13","2.0.0","31999","pht22x40vxj","null","<p style=""border: 5px solid red;"">Incorrect.</p>","null","","",""
"","","","","","html-keyboard-response","14","2.0.0","33002","pht22x40vxj","null","<div style=""font-size: 75px;"">+</div>","null","","",""
"","","","","","image-keyboard-response","15","2.0.0","36254","pht22x40vxj","3249","stimuli/9_150.jpg","f","response","f","true"
"","","","","","html-keyboard-response","16","2.0.0","36757","pht22x40vxj","null","<p style=""border: 5px solid green;"">Correct!</p>","null","","",""
"","","","","","html-keyboard-response","17","2.0.0","37760","pht22x40vxj","null","<div style=""font-size: 75px;"">+</div>","null","","",""
"","","","","","image-keyboard-response","18","2.0.0","38240","pht22x40vxj","477","stimuli/15_50.jpg","j","response","f","false"
"","","","","","html-keyboard-response","19","2.0.0","38742","pht22x40vxj","null","<p style=""border: 5px solid red;"">Incorrect.</p>","null","","",""
"","","","","","html-keyboard-response","20","2.0.0","39744","pht22x40vxj","null","<div style=""font-size: 75px;"">+</div>","null","","",""
"","","","","","image-keyboard-response","21","2.0.0","40294","pht22x40vxj","547","stimuli/27_50.jpg","f","response","f","true"
"","","","","","html-keyboard-response","22","2.0.0","40797","pht22x40vxj","null","<p style=""border: 5px solid green;"">Correct!</p>","null","","",""
"","","","","","html-keyboard-response","23","2.0.0","41800","pht22x40vxj","null","<div style=""font-size: 75px;"">+</div>","null","","",""
"","","","","","image-keyboard-response","24","2.0.0","42090","pht22x40vxj","287","stimuli/6_50_R.jpg","j","response","j","true"
"","","","","","html-keyboard-response","25","2.0.0","42593","pht22x40vxj","null","<p style=""border: 5px solid green;"">Correct!</p>","null","","",""
"","","","","","html-keyboard-response","26","2.0.0","43595","pht22x40vxj","null","<div style=""font-size: 75px;"">+</div>","null","","",""
"","","","","","image-keyboard-response","27","2.0.0","47643","pht22x40vxj","4046","stimuli/23_50.jpg","f","response","f","true"
"","","","","","html-keyboard-response","28","2.0.0","48146","pht22x40vxj","null","<p style=""border: 5px solid green;"">Correct!</p>","null","","",""
"","","","","","html-keyboard-response","29","2.0.0","49149","pht22x40vxj","null","<div style=""font-size: 75px;"">+</div>","null","","",""
"","","","","","image-keyboard-response","30","2.0.0","52172","pht22x40vxj","3021","stimuli/22_150.jpg","f","response","f","true"
"","","","","","html-keyboard-response","31","2.0.0","52675","pht22x40vxj","null","<p style=""border: 5px solid green;"">Correct!</p>","null","","",""
"","","","","","html-keyboard-response","32","2.0.0","53678","pht22x40vxj","null","<div style=""font-size: 75px;"">+</div>","null","","",""
"","","","","","image-keyboard-response","33","2.0.0","55520","pht22x40vxj","1840","stimuli/32_100_R.jpg","f","response","j","false"
"","","","","","html-keyboard-response","34","2.0.0","56022","pht22x40vxj","null","<p style=""border: 5px solid red;"">Incorrect.</p>","null","","",""
"","","","","","html-keyboard-response","35","2.0.0","57025","pht22x40vxj","null","<div style=""font-size: 75px;"">+</div>","null","","",""
"","","","","","image-keyboard-response","36","2.0.0","59566","pht22x40vxj","2538","stimuli/48_100.jpg","f","response","f","true"
"","","","","","html-keyboard-response","37","2.0.0","60068","pht22x40vxj","null","<p style=""border: 5px solid green;"">Correct!</p>","null","","",""
"","","","","","html-keyboard-response","38","2.0.0","61071","pht22x40vxj","null","<div style=""font-size: 75px;"">+</div>","null","","",""
"","","","","","image-keyboard-response","39","2.0.0","61484","pht22x40vxj","411","stimuli/20_50_R.jpg","j","response","j","true"
"","","","","","html-keyboard-response","40","2.0.0","61986","pht22x40vxj","null","<p style=""border: 5px solid green;"">Correct!</p>","null","","",""
"","","","","","html-keyboard-response","41","2.0.0","62988","pht22x40vxj","null","<div style=""font-size: 75px;"">+</div>","null","","",""
"","","","","","image-keyboard-response","42","2.0.0","64007","pht22x40vxj","1016","stimuli/20_100.jpg","f","response","f","true"
"","","","","","html-keyboard-response","43","2.0.0","64509","pht22x40vxj","null","<p style=""border: 5px solid green;"">Correct!</p>","null","","",""
"","","","","","html-keyboard-response","44","2.0.0","65513","pht22x40vxj","null","<div style=""font-size: 75px;"">+</div>","null","","",""
"","","","","","image-keyboard-response","45","2.0.0","68990","pht22x40vxj","3474","stimuli/15_0.jpg","f","response","f","true"
"","","","","","html-keyboard-response","46","2.0.0","69492","pht22x40vxj","null","<p style=""border: 5px solid green;"">Correct!</p>","null","","",""
"","","","","","html-keyboard-response","47","2.0.0","70495","pht22x40vxj","null","<div style=""font-size: 75px;"">+</div>","null","","",""
"","","","","","image-keyboard-response","48","2.0.0","72957","pht22x40vxj","2454","stimuli/19_150_R.jpg","j","response","j","true"
"","","","","","html-keyboard-response","49","2.0.0","73459","pht22x40vxj","null","<p style=""border: 5px solid green;"">Correct!</p>","null","","",""
"","","","","","html-keyboard-response","50","2.0.0","74462","pht22x40vxj","null","<div style=""font-size: 75px;"">+</div>","null","","",""
"","","","","","image-keyboard-response","51","2.0.0","79578","pht22x40vxj","5113","stimuli/43_100.jpg","f","response","f","true"
"","","","","","html-keyboard-response","52","2.0.0","80080","pht22x40vxj","null","<p style=""border: 5px solid green;"">Correct!</p>","null","","",""
"","","","","","html-keyboard-response","53","2.0.0","81084","pht22x40vxj","null","<div style=""font-size: 75px;"">+</div>","null","","",""
"","","","","","image-keyboard-response","54","2.0.0","86413","pht22x40vxj","5327","stimuli/14_50_R.jpg","f","response","j","false"
"","","","","","html-keyboard-response","55","2.0.0","86915","pht22x40vxj","null","<p style=""border: 5px solid red;"">Incorrect.</p>","null","","",""
"","","","","","html-keyboard-response","56","2.0.0","87918","pht22x40vxj","null","<div style=""font-size: 75px;"">+</div>","null","","",""
"","","","","","image-keyboard-response","57","2.0.0","88691","pht22x40vxj","771","stimuli/22_100.jpg","f","response","f","true"
"","","","","","html-keyboard-response","58","2.0.0","89193","pht22x40vxj","null","<p style=""border: 5px solid green;"">Correct!</p>","null","","",""
"","","","","","html-keyboard-response","59","2.0.0","90196","pht22x40vxj","null","<div style=""font-size: 75px;"">+</div>","null","","",""
"","","","","","image-keyboard-response","60","2.0.0","93148","pht22x40vxj","2950","stimuli/11_0.jpg","f","response","f","true"
"","","","","","html-keyboard-response","61","2.0.0","93651","pht22x40vxj","null","<p style=""border: 5px solid green;"">Correct!</p>","null","","",""
"","","","","","html-keyboard-response","62","2.0.0","94654","pht22x40vxj","null","<div style=""font-size: 75px;"">+</div>","null","","",""
"","","","","","image-keyboard-response","63","2.0.0","95564","pht22x40vxj","908","stimuli/9_0.jpg","j","response","f","false"
"","","","","","html-keyboard-response","64","2.0.0","96067","pht22x40vxj","null","<p style=""border: 5px solid red;"">Incorrect.</p>","null","","",""
"","","","","","html-keyboard-response","65","2.0.0","97070","pht22x40vxj","null","<div style=""font-size: 75px;"">+</div>","null","","",""
"","","","","","image-keyboard-response","66","2.0.0","97430","pht22x40vxj","357","stimuli/48_0_R.jpg","f","response","j","false"
"","","","","","html-keyboard-response","67","2.0.0","97932","pht22x40vxj","null","<p style=""border: 5px solid red;"">Incorrect.</p>","null","","",""
"","","","","","html-keyboard-response","68","2.0.0","98935","pht22x40vxj","null","<div style=""font-size: 75px;"">+</div>","null","","",""
"","","","","","image-keyboard-response","69","2.0.0","100256","pht22x40vxj","1319","stimuli/25_100_R.jpg","f","response","j","false"
"","","","","","html-keyboard-response","70","2.0.0","100758","pht22x40vxj","null","<p style=""border: 5px solid red;"">Incorrect.</p>","null","","",""
"","","","","","html-keyboard-response","71","2.0.0","101761","pht22x40vxj","null","<div style=""font-size: 75px;"">+</div>","null","","",""
"","","","","","image-keyboard-response","72","2.0.0","102032","pht22x40vxj","268","stimuli/33_50.jpg","j","response","f","false"
"","","","","","html-keyboard-response","73","2.0.0","102535","pht22x40vxj","null","<p style=""border: 5px solid red;"">Incorrect.</p>","null","","",""
"","","","","","html-keyboard-response","74","2.0.0","103537","pht22x40vxj","null","<div style=""font-size: 75px;"">+</div>","null","","",""
"","","","","","image-keyboard-response","75","2.0.0","103708","pht22x40vxj","170","stimuli/17_50_R.jpg","j","response","j","true"
"","","","","","html-keyboard-response","76","2.0.0","103882","pht22x40vxj","172","<p style=""border: 5px solid green;"">Correct!</p>","j","","",""
"","","","","","html-keyboard-response","77","2.0.0","104885","pht22x40vxj","null","<div style=""font-size: 75px;"">+</div>","null","","",""
"","","","","","image-keyboard-response","78","2.0.0","104916","pht22x40vxj","29","stimuli/41_150_R.jpg","f","response","j","false"
"","","","","","html-keyboard-response","79","2.0.0","105104","pht22x40vxj","187","<p style=""border: 5px solid red;"">Incorrect.</p>","f","","",""
"","","","","","html-keyboard-response","80","2.0.0","106107","pht22x40vxj","null","<div style=""font-size: 75px;"">+</div>","null","","",""
"","","","","","image-keyboard-response","81","2.0.0","106155","pht22x40vxj","45","stimuli/35_150_R.jpg","j","response","j","true"
"","","","","","html-keyboard-response","82","2.0.0","106337","pht22x40vxj","180","<p style=""border: 5px solid green;"">Correct!</p>","j","","",""
"","","","","","html-keyboard-response","83","2.0.0","107340","pht22x40vxj","null","<div style=""font-size: 75px;"">+</div>","null","","",""
"","","","","","image-keyboard-response","84","2.0.0","107496","pht22x40vxj","154","stimuli/8_0_R.jpg","f","response","j","false"
"","","","","","html-keyboard-response","85","2.0.0","107678","pht22x40vxj","180","<p style=""border: 5px solid red;"">Incorrect.</p>","f","","",""
"","","","","","html-keyboard-response","86","2.0.0","108681","pht22x40vxj","null","<div style=""font-size: 75px;"">+</div>","null","","",""
"","","","","","image-keyboard-response","87","2.0.0","108830","pht22x40vxj","147","stimuli/25_150_R.jpg","j","response","j","true"
"","","","","","html-keyboard-response","88","2.0.0","109002","pht22x40vxj","171","<p style=""border: 5px solid green;"">Correct!</p>","j","","",""
"","","","","","html-keyboard-response","89","2.0.0","110004","pht22x40vxj","null","<div style=""font-size: 75px;"">+</div>","null","","",""
"","","","","","image-keyboard-response","90","2.0.0","110095","pht22x40vxj","89","stimuli/3_150_R.jpg","f","response","j","false"
"","","","","","html-keyboard-response","91","2.0.0","110279","pht22x40vxj","183","<p style=""border: 5px solid red;"">Incorrect.</p>","f","","",""
"","","","","","html-keyboard-response","92","2.0.0","111281","pht22x40vxj","null","<div style=""font-size: 75px;"">+</div>","null","","",""
"","","","","","image-keyboard-response","93","2.0.0","111437","pht22x40vxj","154","stimuli/27_150.jpg","j","response","f","false"
"","","","","","html-keyboard-response","94","2.0.0","111589","pht22x40vxj","151","<p style=""border: 5px solid red;"">Incorrect.</p>","j","","",""
"","","","","","html-keyboard-response","95","2.0.0","112592","pht22x40vxj","null","<div style=""font-size: 75px;"">+</div>","null","","",""
"","","","","","image-keyboard-response","96","2.0.0","112707","pht22x40vxj","113","stimuli/2_50.jpg","f","response","f","true"
"","","","","","html-keyboard-response","97","2.0.0","112890","pht22x40vxj","182","<p style=""border: 5px solid green;"">Correct!</p>","f","","",""
"","","","","","html-keyboard-response","98","2.0.0","113893","pht22x40vxj","null","<div style=""font-size: 75px;"">+</div>","null","","",""
"","","","","","image-keyboard-response","99","2.0.0","114020","pht22x40vxj","116","stimuli/42_150.jpg","f","response","f","true"
"","","","","","html-keyboard-response","100","2.0.0","114208","pht22x40vxj","187","<p style=""border: 5px solid green;"">Correct!</p>","f","","",""
"","","","","","html-keyboard-response","101","2.0.0","115211","pht22x40vxj","null","<div style=""font-size: 75px;"">+</div>","null","","",""
"","","","","","image-keyboard-response","102","2.0.0","115303","pht22x40vxj","89","stimuli/21_0_R.jpg","f","response","j","false"
"","","","","","html-keyboard-response","103","2.0.0","115466","pht22x40vxj","162","<p style=""border: 5px solid red;"">Incorrect.</p>","f","","",""
"","","","","","html-keyboard-response","104","2.0.0","116469","pht22x40vxj","null","<div style=""font-size: 75px;"">+</div>","null","","",""
"","","","","","image-keyboard-response","105","2.0.0","116486","pht22x40vxj","15","stimuli/13_100.jpg","j","response","f","false"
"","","","","","html-keyboard-response","106","2.0.0","116626","pht22x40vxj","139","<p style=""border: 5px solid red;"">Incorrect.</p>","j","","",""
"","","","","","html-keyboard-response","107","2.0.0","117629","pht22x40vxj","null","<div style=""font-size: 75px;"">+</div>","null","","",""
"","","","","","image-keyboard-response","108","2.0.0","117741","pht22x40vxj","109","stimuli/44_100_R.jpg","j","response","j","true"
"","","","","","html-keyboard-response","109","2.0.0","117908","pht22x40vxj","166","<p style=""border: 5px solid green;"">Correct!</p>","j","","",""
"","","","","","html-keyboard-response","110","2.0.0","118911","pht22x40vxj","null","<div style=""font-size: 75px;"">+</div>","null","","",""
"","","","","","image-keyboard-response","111","2.0.0","118951","pht22x40vxj","38","stimuli/30_0.jpg","j","response","f","false"
"","","","","","html-keyboard-response","112","2.0.0","119121","pht22x40vxj","169","<p style=""border: 5px solid red;"">Incorrect.</p>","j","","",""
"","","","","","html-keyboard-response","113","2.0.0","120124","pht22x40vxj","null","<div style=""font-size: 75px;"">+</div>","null","","",""
"","","","","","image-keyboard-response","114","2.0.0","120133","pht22x40vxj","7","stimuli/46_150.jpg","f","response","f","true"
"","","","","","html-keyboard-response","115","2.0.0","120312","pht22x40vxj","177","<p style=""border: 5px solid green;"">Correct!</p>","f","","",""
"","","","","","html-keyboard-response","116","2.0.0","121315","pht22x40vxj","null","<div style=""font-size: 75px;"">+</div>","null","","",""
"","","","","","image-keyboard-response","117","2.0.0","121382","pht22x40vxj","65","stimuli/26_100_R.jpg","f","response","j","false"
"","","","","","html-keyboard-response","118","2.0.0","121546","pht22x40vxj","162","<p style=""border: 5px solid red;"">Incorrect.</p>","f","","",""
"","","","","","html-keyboard-response","119","2.0.0","122548","pht22x40vxj","null","<div style=""font-size: 75px;"">+</div>","null","","",""
"","","","","","image-keyboard-response","120","2.0.0","122630","pht22x40vxj","80","stimuli/5_150_R.jpg","j","response","j","true"
"","","","","","html-keyboard-response","121","2.0.0","123103","pht22x40vxj","471","<p style=""border: 5px solid green;"">Correct!</p>","j","","",""
"","","","","","html-keyboard-response","122","2.0.0","124106","pht22x40vxj","null","<div style=""font-size: 75px;"">+</div>","null","","",""
"","","","","","image-keyboard-response","123","2.0.0","124395","pht22x40vxj","287","stimuli/20_50.jpg","f","response","f","true"
"","","","","","html-keyboard-response","124","2.0.0","124897","pht22x40vxj","null","<p style=""border: 5px solid green;"">Correct!</p>","null","","",""
"","","","","","html-keyboard-response","125","2.0.0","125899","pht22x40vxj","null","<div style=""font-size: 75px;"">+</div>","null","","",""
"","","","","","image-keyboard-response","126","2.0.0","126228","pht22x40vxj","326","stimuli/38_50_R.jpg","j","response","j","true"
"","","","","","html-keyboard-response","127","2.0.0","126729","pht22x40vxj","null","<p style=""border: 5px solid green;"">Correct!</p>","null","","",""
"","","","","","html-keyboard-response","128","2.0.0","127732","pht22x40vxj","null","<div style=""font-size: 75px;"">+</div>","null","","",""
"","","","","","image-keyboard-response","129","2.0.0","127788","pht22x40vxj","53","stimuli/8_100_R.jpg","f","response","j","false"
"","","","","","html-keyboard-response","130","2.0.0","127994","pht22x40vxj","205","<p style=""border: 5px solid red;"">Incorrect.</p>","f","","",""
"","","","","","html-keyboard-response","131","2.0.0","128997","pht22x40vxj","null","<div style=""font-size: 75px;"">+</div>","null","","",""
"","","","","","image-keyboard-response","132","2.0.0","129421","pht22x40vxj","421","stimuli/21_50.jpg","j","response","f","false"
"","","","","","html-keyboard-response","133","2.0.0","129923","pht22x40vxj","null","<p style=""border: 5px solid red;"">Incorrect.</p>","null","","",""
"","","","","","html-keyboard-response","134","2.0.0","130926","pht22x40vxj","null","<div style=""font-size: 75px;"">+</div>","null","","",""
"","","","","","image-keyboard-response","135","2.0.0","131175","pht22x40vxj","247","stimuli/11_100.jpg","j","response","f","false"
"","","","","","html-keyboard-response","136","2.0.0","131677","pht22x40vxj","null","<p style=""border: 5px solid red;"">Incorrect.</p>","null","","",""
"","","","","","html-keyboard-response","137","2.0.0","132680","pht22x40vxj","null","<div style=""font-size: 75px;"">+</div>","null","","",""
"","","","","","image-keyboard-response","138","2.0.0","132927","pht22x40vxj","245","stimuli/12_0_R.jpg","f","response","j","false"
"","","","","","html-keyboard-response","139","2.0.0","133134","pht22x40vxj","205","<p style=""border: 5px solid red;"">Incorrect.</p>","f","","",""
"","","","","","html-keyboard-response","140","2.0.0","134137","pht22x40vxj","null","<div style=""font-size: 75px;"">+</div>","null","","",""
"","","","","","image-keyboard-response","141","2.0.0","134456","pht22x40vxj","316","stimuli/36_0.jpg","j","response","f","false"
"","","","","","html-keyboard-response","142","2.0.0","134958","pht22x40vxj","null","<p style=""border: 5px solid red;"">Incorrect.</p>","null","","",""
"","","","","","html-keyboard-response","143","2.0.0","135961","pht22x40vxj","null","<div style=""font-size: 75px;"">+</div>","null","","",""
"","","","","","image-keyboard-response","144","2.0.0","135975","pht22x40vxj","12","stimuli/7_50_R.jpg","f","response","j","false"
"","","","","","html-keyboard-response","145","2.0.0","136477","pht22x40vxj","null","<p style=""border: 5px solid red;"">Incorrect.</p>","null","","",""
"","","","","","html-keyboard-response","146","2.0.0","137479","pht22x40vxj","null","<div style=""font-size: 75px;"">+</div>","null","","",""
"","","","","","image-keyboard-response","147","2.0.0","137716","pht22x40vxj","234","stimuli/3_150.jpg","f","response","f","true"
"","","","","","html-keyboard-response","148","2.0.0","138217","pht22x40vxj","null","<p style=""border: 5px solid green;"">Correct!</p>","null","","",""
"","","","","","html-keyboard-response","149","2.0.0","168220","pht22x40vxj","null","<p> Take a break! Experiment continues in 30 seconds . </p>","null","","",""
"","","","","","html-keyboard-response","150","2.0.0","169223","pht22x40vxj","null","<div style=""font-size: 75px;"">+</div>","null","","",""
"","","","","","image-keyboard-response","151","2.0.0","171279","pht22x40vxj","2053","stimuli/36_100.jpg","f","response","f","true"
"","","","","","html-keyboard-response","152","2.0.0","171781","pht22x40vxj","null","<p style=""border: 5px solid green;"">Correct!</p>","null","","",""
"","","","","","html-keyboard-response","153","2.0.0","172784","pht22x40vxj","null","<div style=""font-size: 75px;"">+</div>","null","","",""
"","","","","","image-keyboard-response","154","2.0.0","174665","pht22x40vxj","1879","stimuli/33_100_R.jpg","f","response","j","false"
"","","","","","html-keyboard-response","155","2.0.0","175167","pht22x40vxj","null","<p style=""border: 5px solid red;"">Incorrect.</p>","null","","",""
"","","","","","html-keyboard-response","156","2.0.0","176169","pht22x40vxj","null","<div style=""font-size: 75px;"">+</div>","null","","",""
"","","","","","image-keyboard-response","157","2.0.0","176878","pht22x40vxj","707","stimuli/9_0_R.jpg","j","response","j","true"
"","","","","","html-keyboard-response","158","2.0.0","177381","pht22x40vxj","null","<p style=""border: 5px solid green;"">Correct!</p>","null","","",""
"","","","","","html-keyboard-response","159","2.0.0","178383","pht22x40vxj","null","<div style=""font-size: 75px;"">+</div>","null","","",""
"","","","","","image-keyboard-response","160","2.0.0","178892","pht22x40vxj","507","stimuli/7_0.jpg","j","response","f","false"
"","","","","","html-keyboard-response","161","2.0.0","179394","pht22x40vxj","null","<p style=""border: 5px solid red;"">Incorrect.</p>","null","","",""
"","","","","","html-keyboard-response","162","2.0.0","180397","pht22x40vxj","null","<div style=""font-size: 75px;"">+</div>","null","","",""
"","","","","","image-keyboard-response","163","2.0.0","180751","pht22x40vxj","352","stimuli/25_100.jpg","f","response","f","true"
"","","","","","html-keyboard-response","164","2.0.0","181254","pht22x40vxj","null","<p style=""border: 5px solid green;"">Correct!</p>","null","","",""
"","","","","","html-keyboard-response","165","2.0.0","182257","pht22x40vxj","null","<div style=""font-size: 75px;"">+</div>","null","","",""
"","","","","","image-keyboard-response","166","2.0.0","183643","pht22x40vxj","1383","stimuli/10_150_R.jpg","f","response","j","false"
"","","","","","html-keyboard-response","167","2.0.0","184145","pht22x40vxj","null","<p style=""border: 5px solid red;"">Incorrect.</p>","null","","",""
"","","","","","html-keyboard-response","168","2.0.0","185148","pht22x40vxj","null","<div style=""font-size: 75px;"">+</div>","null","","",""
"","","","","","image-keyboard-response","169","2.0.0","185695","pht22x40vxj","545","stimuli/14_0_R.jpg","j","response","j","true"
"","","","","","html-keyboard-response","170","2.0.0","186197","pht22x40vxj","null","<p style=""border: 5px solid green;"">Correct!</p>","null","","",""
"","","","","","html-keyboard-response","171","2.0.0","187200","pht22x40vxj","null","<div style=""font-size: 75px;"">+</div>","null","","",""
"","","","","","image-keyboard-response","172","2.0.0","187544","pht22x40vxj","342","stimuli/32_0.jpg","f","response","f","true"
"","","","","","html-keyboard-response","173","2.0.0","188047","pht22x40vxj","null","<p style=""border: 5px solid green;"">Correct!</p>","null","","",""
"","","","","","html-keyboard-response","174","2.0.0","189050","pht22x40vxj","null","<div style=""font-size: 75px;"">+</div>","null","","",""
"","","","","","image-keyboard-response","175","2.0.0","190009","pht22x40vxj","957","stimuli/6_0.jpg","f","response","f","true"
"","","","","","html-keyboard-response","176","2.0.0","190511","pht22x40vxj","null","<p style=""border: 5px solid green;"">Correct!</p>","null","","",""
"","","","","","html-keyboard-response","177","2.0.0","191515","pht22x40vxj","null","<div style=""font-size: 75px;"">+</div>","null","","",""
"","","","","","image-keyboard-response","178","2.0.0","192475","pht22x40vxj","958","stimuli/5_50.jpg","j","response","f","false"
"","","","","","html-keyboard-response","179","2.0.0","192977","pht22x40vxj","null","<p style=""border: 5px solid red;"">Incorrect.</p>","null","","",""
"","","","","","html-keyboard-response","180","2.0.0","193980","pht22x40vxj","null","<div style=""font-size: 75px;"">+</div>","null","","",""
"","","","","","image-keyboard-response","181","2.0.0","196082","pht22x40vxj","2100","stimuli/28_50_R.jpg","f","response","j","false"
"","","","","","html-keyboard-response","182","2.0.0","196584","pht22x40vxj","null","<p style=""border: 5px solid red;"">Incorrect.</p>","null","","",""
"","","","","","html-keyboard-response","183","2.0.0","197587","pht22x40vxj","null","<div style=""font-size: 75px;"">+</div>","null","","",""
"","","","","","image-keyboard-response","184","2.0.0","198474","pht22x40vxj","885","stimuli/39_150_R.jpg","j","response","j","true"
"","","","","","html-keyboard-response","185","2.0.0","198976","pht22x40vxj","null","<p style=""border: 5px solid green;"">Correct!</p>","null","","",""
"","","","","","html-keyboard-response","186","2.0.0","199979","pht22x40vxj","null","<div style=""font-size: 75px;"">+</div>","null","","",""
"","","","","","image-keyboard-response","187","2.0.0","200901","pht22x40vxj","919","stimuli/33_50_R.jpg","f","response","j","false"
"","","","","","html-keyboard-response","188","2.0.0","201403","pht22x40vxj","null","<p style=""border: 5px solid red;"">Incorrect.</p>","null","","",""
"","","","","","html-keyboard-response","189","2.0.0","202406","pht22x40vxj","null","<div style=""font-size: 75px;"">+</div>","null","","",""
"","","","","","image-keyboard-response","190","2.0.0","203218","pht22x40vxj","809","stimuli/1_50_R.jpg","j","response","j","true"
"","","","","","html-keyboard-response","191","2.0.0","203720","pht22x40vxj","null","<p style=""border: 5px solid green;"">Correct!</p>","null","","",""
"","","","","","html-keyboard-response","192","2.0.0","204723","pht22x40vxj","null","<div style=""font-size: 75px;"">+</div>","null","","",""
"","","","","","image-keyboard-response","193","2.0.0","205555","pht22x40vxj","830","stimuli/32_100.jpg","j","response","f","false"
"","","","","","html-keyboard-response","194","2.0.0","206058","pht22x40vxj","null","<p style=""border: 5px solid red;"">Incorrect.</p>","null","","",""
"","","","","","html-keyboard-response","195","2.0.0","207061","pht22x40vxj","null","<div style=""font-size: 75px;"">+</div>","null","","",""
"","","","","","image-keyboard-response","196","2.0.0","207400","pht22x40vxj","336","stimuli/39_50_R.jpg","f","response","j","false"
"","","","","","html-keyboard-response","197","2.0.0","207902","pht22x40vxj","null","<p style=""border: 5px solid red;"">Incorrect.</p>","null","","",""
"","","","","","html-keyboard-response","198","2.0.0","208905","pht22x40vxj","null","<div style=""font-size: 75px;"">+</div>","null","","",""
"","","","","","image-keyboard-response","199","2.0.0","209254","pht22x40vxj","347","stimuli/29_0_R.jpg","j","response","j","true"
"","","","","","html-keyboard-response","200","2.0.0","209757","pht22x40vxj","null","<p style=""border: 5px solid green;"">Correct!</p>","null","","",""
"","","","","","html-keyboard-response","201","2.0.0","210760","pht22x40vxj","null","<div style=""font-size: 75px;"">+</div>","null","","",""
"","","","","","image-keyboard-response","202","2.0.0","211143","pht22x40vxj","381","stimuli/22_0_R.jpg","j","response","j","true"
"","","","","","html-keyboard-response","203","2.0.0","211645","pht22x40vxj","null","<p style=""border: 5px solid green;"">Correct!</p>","null","","",""
"","","","","","html-keyboard-response","204","2.0.0","212648","pht22x40vxj","null","<div style=""font-size: 75px;"">+</div>","null","","",""
"","","","","","image-keyboard-response","205","2.0.0","219239","pht22x40vxj","6588","stimuli/5_0.jpg","j","response","f","false"
"","","","","","html-keyboard-response","206","2.0.0","219741","pht22x40vxj","null","<p style=""border: 5px solid red;"">Incorrect.</p>","null","","",""
"","","","","","html-keyboard-response","207","2.0.0","220743","pht22x40vxj","null","<div style=""font-size: 75px;"">+</div>","null","","",""
"","","","","","image-keyboard-response","208","2.0.0","221209","pht22x40vxj","464","stimuli/8_150.jpg","f","response","f","true"
"","","","","","html-keyboard-response","209","2.0.0","221711","pht22x40vxj","null","<p style=""border: 5px solid green;"">Correct!</p>","null","","",""
"","","","","","html-keyboard-response","210","2.0.0","222714","pht22x40vxj","null","<div style=""font-size: 75px;"">+</div>","null","","",""
"","","","","","image-keyboard-response","211","2.0.0","223549","pht22x40vxj","832","stimuli/6_150.jpg","f","response","f","true"
"","","","","","html-keyboard-response","212","2.0.0","224052","pht22x40vxj","null","<p style=""border: 5px solid green;"">Correct!</p>","null","","",""
"","","","","","html-keyboard-response","213","2.0.0","225055","pht22x40vxj","null","<div style=""font-size: 75px;"">+</div>","null","","",""
"","","","","","image-keyboard-response","214","2.0.0","229680","pht22x40vxj","4623","stimuli/18_150.jpg","j","response","f","false"
"","","","","","html-keyboard-response","215","2.0.0","230181","pht22x40vxj","null","<p style=""border: 5px solid red;"">Incorrect.</p>","null","","",""
"","","","","","html-keyboard-response","216","2.0.0","231183","pht22x40vxj","null","<div style=""font-size: 75px;"">+</div>","null","","",""
"","","","","","image-keyboard-response","217","2.0.0","232185","pht22x40vxj","999","stimuli/26_0.jpg","f","response","f","true"
"","","","","","html-keyboard-response","218","2.0.0","232687","pht22x40vxj","null","<p style=""border: 5px solid green;"">Correct!</p>","null","","",""
"","","","","","html-keyboard-response","219","2.0.0","233690","pht22x40vxj","null","<div style=""font-size: 75px;"">+</div>","null","","",""
"","","","","","image-keyboard-response","220","2.0.0","234307","pht22x40vxj","614","stimuli/48_150_R.jpg","f","response","j","false"
"","","","","","html-keyboard-response","221","2.0.0","234809","pht22x40vxj","null","<p style=""border: 5px solid red;"">Incorrect.</p>","null","","",""
"","","","","","html-keyboard-response","222","2.0.0","235812","pht22x40vxj","null","<div style=""font-size: 75px;"">+</div>","null","","",""
"","","","","","image-keyboard-response","223","2.0.0","280513","pht22x40vxj","44700","stimuli/42_0_R.jpg","j","response","j","true"
"","","","","","html-keyboard-response","224","2.0.0","281015","pht22x40vxj","null","<p style=""border: 5px solid green;"">Correct!</p>","null","","",""
"","","","","","html-keyboard-response","225","2.0.0","282018","pht22x40vxj","null","<div style=""font-size: 75px;"">+</div>","null","","",""
"","","","","","image-keyboard-response","226","2.0.0","282942","pht22x40vxj","921","stimuli/11_150.jpg","j","response","f","false"
"","","","","","html-keyboard-response","227","2.0.0","283444","pht22x40vxj","null","<p style=""border: 5px solid red;"">Incorrect.</p>","null","","",""
"","","","","","html-keyboard-response","228","2.0.0","284446","pht22x40vxj","null","<div style=""font-size: 75px;"">+</div>","null","","",""
"","","","","","image-keyboard-response","229","2.0.0","286814","pht22x40vxj","2365","stimuli/38_100_R.jpg","f","response","j","false"
"","","","","","html-keyboard-response","230","2.0.0","287316","pht22x40vxj","null","<p style=""border: 5px solid red;"">Incorrect.</p>","null","","",""
"","","","","","html-keyboard-response","231","2.0.0","288318","pht22x40vxj","null","<div style=""font-size: 75px;"">+</div>","null","","",""
"","","","","","image-keyboard-response","232","2.0.0","288585","pht22x40vxj","264","stimuli/40_50_R.jpg","f","response","j","false"
"","","","","","html-keyboard-response","233","2.0.0","289086","pht22x40vxj","null","<p style=""border: 5px solid red;"">Incorrect.</p>","null","","",""
"","","","","","html-keyboard-response","234","2.0.0","290089","pht22x40vxj","null","<div style=""font-size: 75px;"">+</div>","null","","",""
"","","","","","image-keyboard-response","235","2.0.0","290289","pht22x40vxj","198","stimuli/23_0_R.jpg","j","response","j","true"
"","","","","","html-keyboard-response","236","2.0.0","290791","pht22x40vxj","null","<p style=""border: 5px solid green;"">Correct!</p>","null","","",""
"","","","","","html-keyboard-response","237","2.0.0","291793","pht22x40vxj","null","<div style=""font-size: 75px;"">+</div>","null","","",""
"","","","","","image-keyboard-response","238","2.0.0","291941","pht22x40vxj","145","stimuli/6_50.jpg","f","response","f","true"
"","","","","","html-keyboard-response","239","2.0.0","292442","pht22x40vxj","null","<p style=""border: 5px solid green;"">Correct!</p>","null","","",""
"","","","","","html-keyboard-response","240","2.0.0","293445","pht22x40vxj","null","<div style=""font-size: 75px;"">+</div>","null","","",""
"","","","","","image-keyboard-response","241","2.0.0","293558","pht22x40vxj","111","stimuli/30_100_R.jpg","f","response","j","false"
"","","","","","html-keyboard-response","242","2.0.0","294060","pht22x40vxj","null","<p style=""border: 5px solid red;"">Incorrect.</p>","null","","",""
"","","","","","html-keyboard-response","243","2.0.0","295062","pht22x40vxj","null","<div style=""font-size: 75px;"">+</div>","null","","",""
"","","","","","image-keyboard-response","244","2.0.0","295399","pht22x40vxj","335","stimuli/8_100.jpg","f","response","f","true"
"","","","","","html-keyboard-response","245","2.0.0","295901","pht22x40vxj","null","<p style=""border: 5px solid green;"">Correct!</p>","null","","",""
"","","","","","html-keyboard-response","246","2.0.0","296904","pht22x40vxj","null","<div style=""font-size: 75px;"">+</div>","null","","",""
"","","","","","image-keyboard-response","247","2.0.0","298944","pht22x40vxj","2038","stimuli/42_100.jpg","j","response","f","false"
"","","","","","html-keyboard-response","248","2.0.0","299446","pht22x40vxj","null","<p style=""border: 5px solid red;"">Incorrect.</p>","null","","",""
"","","","","","html-keyboard-response","249","2.0.0","300449","pht22x40vxj","null","<div style=""font-size: 75px;"">+</div>","null","","",""
"","","","","","image-keyboard-response","250","2.0.0","300758","pht22x40vxj","306","stimuli/38_150_R.jpg","f","response","j","false"
"","","","","","html-keyboard-response","251","2.0.0","301259","pht22x40vxj","null","<p style=""border: 5px solid red;"">Incorrect.</p>","null","","",""
"","","","","","html-keyboard-response","252","2.0.0","302262","pht22x40vxj","null","<div style=""font-size: 75px;"">+</div>","null","","",""
"","","","","","image-keyboard-response","253","2.0.0","302299","pht22x40vxj","29","stimuli/47_150_R.jpg","j","response","j","true"
"","","","","","html-keyboard-response","254","2.0.0","302689","pht22x40vxj","389","<p style=""border: 5px solid green;"">Correct!</p>","j","","",""
"","","","","","html-keyboard-response","255","2.0.0","303693","pht22x40vxj","null","<div style=""font-size: 75px;"">+</div>","null","","",""
"","","","","","image-keyboard-response","256","2.0.0","303905","pht22x40vxj","210","stimuli/17_50.jpg","j","response","f","false"
"","","","","","html-keyboard-response","257","2.0.0","304083","pht22x40vxj","177","<p style=""border: 5px solid red;"">Incorrect.</p>","f","","",""
"","","","","","html-keyboard-response","258","2.0.0","305087","pht22x40vxj","null","<div style=""font-size: 75px;"">+</div>","null","","",""
"","","","","","image-keyboard-response","259","2.0.0","305235","pht22x40vxj","147","stimuli/39_100.jpg","j","response","f","false"
"","","","","","html-keyboard-response","260","2.0.0","305315","pht22x40vxj","78","<p style=""border: 5px solid red;"">Incorrect.</p>","f","","",""
"","","","","","html-keyboard-response","261","2.0.0","306317","pht22x40vxj","null","<div style=""font-size: 75px;"">+</div>","null","","",""
"","","","","","image-keyboard-response","262","2.0.0","306431","pht22x40vxj","111","stimuli/18_100_R.jpg","j","response","j","true"
"","","","","","html-keyboard-response","263","2.0.0","306542","pht22x40vxj","110","<p style=""border: 5px solid green;"">Correct!</p>","f","","",""
"","","","","","html-keyboard-response","264","2.0.0","307543","pht22x40vxj","null","<div style=""font-size: 75px;"">+</div>","null","","",""
"","","","","","image-keyboard-response","265","2.0.0","307656","pht22x40vxj","111","stimuli/1_50.jpg","f","response","f","true"
"","","","","","html-keyboard-response","266","2.0.0","307757","pht22x40vxj","99","<p style=""border: 5px solid green;"">Correct!</p>","j","","",""
"","","","","","html-keyboard-response","267","2.0.0","308760","pht22x40vxj","null","<div style=""font-size: 75px;"">+</div>","null","","",""
"","","","","","image-keyboard-response","268","2.0.0","308881","pht22x40vxj","119","stimuli/30_150.jpg","j","response","f","false"
"","","","","","html-keyboard-response","269","2.0.0","308898","pht22x40vxj","16","<p style=""border: 5px solid red;"">Incorrect.</p>","f","","",""
"","","","","","html-keyboard-response","270","2.0.0","309899","pht22x40vxj","null","<div style=""font-size: 75px;"">+</div>","null","","",""
"","","","","","image-keyboard-response","271","2.0.0","310007","pht22x40vxj","105","stimuli/47_100_R.jpg","f","response","j","false"
"","","","","","html-keyboard-response","272","2.0.0","310177","pht22x40vxj","170","<p style=""border: 5px solid red;"">Incorrect.</p>","f","","",""
"","","","","","html-keyboard-response","273","2.0.0","311180","pht22x40vxj","null","<div style=""font-size: 75px;"">+</div>","null","","",""
"","","","","","image-keyboard-response","274","2.0.0","311207","pht22x40vxj","25","stimuli/27_150_R.jpg","j","response","j","true"
"","","","","","html-keyboard-response","275","2.0.0","311374","pht22x40vxj","166","<p style=""border: 5px solid green;"">Correct!</p>","j","","",""
"","","","","","html-keyboard-response","276","2.0.0","312376","pht22x40vxj","null","<div style=""font-size: 75px;"">+</div>","null","","",""
"","","","","","image-keyboard-response","277","2.0.0","312510","pht22x40vxj","132","stimuli/1_0.jpg","f","response","f","true"
"","","","","","html-keyboard-response","278","2.0.0","312689","pht22x40vxj","177","<p style=""border: 5px solid green;"">Correct!</p>","f","","",""
"","","","","","html-keyboard-response","279","2.0.0","313692","pht22x40vxj","null","<div style=""font-size: 75px;"">+</div>","null","","",""
"","","","","","image-keyboard-response","280","2.0.0","313712","pht22x40vxj","18","stimuli/11_100_R.jpg","j","response","j","true"
"","","","","","html-keyboard-response","281","2.0.0","313890","pht22x40vxj","177","<p style=""border: 5px solid green;"">Correct!</p>","j","","",""
"","","","","","html-keyboard-response","282","2.0.0","314893","pht22x40vxj","null","<div style=""font-size: 75px;"">+</div>","null","","",""
"","","","","","image-keyboard-response","283","2.0.0","314962","pht22x40vxj","66","stimuli/30_0_R.jpg","f","response","j","false"
"","","","","","html-keyboard-response","284","2.0.0","315163","pht22x40vxj","200","<p style=""border: 5px solid red;"">Incorrect.</p>","f","","",""
"","","","","","html-keyboard-response","285","2.0.0","316165","pht22x40vxj","null","<div style=""font-size: 75px;"">+</div>","null","","",""
"","","","","","image-keyboard-response","286","2.0.0","316336","pht22x40vxj","169","stimuli/44_150.jpg","j","response","f","false"
"","","","","","html-keyboard-response","287","2.0.0","316501","pht22x40vxj","163","<p style=""border: 5px solid red;"">Incorrect.</p>","j","","",""
"","","","","","html-keyboard-response","288","2.0.0","317504","pht22x40vxj","null","<div style=""font-size: 75px;"">+</div>","null","","",""
"","","","","","image-keyboard-response","289","2.0.0","317589","pht22x40vxj","83","stimuli/24_100_R.jpg","f","response","j","false"
"","","","","","html-keyboard-response","290","2.0.0","317791","pht22x40vxj","202","<p style=""border: 5px solid red;"">Incorrect.</p>","f","","",""
"","","","","","html-keyboard-response","291","2.0.0","318794","pht22x40vxj","null","<div style=""font-size: 75px;"">+</div>","null","","",""
"","","","","","image-keyboard-response","292","2.0.0","318945","pht22x40vxj","149","stimuli/38_0.jpg","f","response","f","true"
"","","","","","html-keyboard-response","293","2.0.0","319135","pht22x40vxj","189","<p style=""border: 5px solid green;"">Correct!</p>","f","","",""
"","","","","","html-keyboard-response","294","2.0.0","320832","pht22x40vxj","1695","<p>Thank you for participating!</p><p>Please press space to answer our survey.</p>"," ","","",""
"","","","","","survey-html-form","295","null","356662","pht22x40vxj","35827","","{""response_1"":""Perfectly clear and lively as real seeing"",""response_2"":""Perfectly clear and lively as real seeing"",""response_3"":""Perfectly clear and lively as real seeing"",""response_4"":""Perfectly clear and lively as real seeing"",""response_5"":""Perfectly clear and lively as real seeing"",""response_6"":""Perfectly clear and lively as real seeing"",""response_7"":""Perfectly clear and lively as real seeing"",""response_8"":""Perfectly clear and lively as real seeing"",""response_9"":""Perfectly clear and lively as real seeing"",""response_10"":""Perfectly clear and lively as real seeing"",""response_11"":""Perfectly clear and lively as real seeing"",""response_12"":""Perfectly clear and lively as real seeing"",""response_13"":""Perfectly clear and lively as real seeing"",""response_14"":""Perfectly clear and lively as real seeing"",""response_15"":""Perfectly clear and lively as real seeing"",""response_16"":""Perfectly clear and lively as real seeing""}","","",""
"","","","","","survey-html-form","296","null","376764","pht22x40vxj","20101","","{""age"":""22"",""gender"":""male"",""education"":""bachelors"",""handedness"":""right"",""vision"":""normal"",""technical_difficulties"":""no "",""knowledge_check"":""""}","","",""
