"success","timeout","failed_images","failed_audio","failed_video","trial_type","trial_index","plugin_version","time_elapsed","random_id","rt","stimulus","response","task","correct_response","correct"
"true","false","[]","[]","[]","preload","0","2.0.0","8575","pj2jmtf25zx","","","","","",""
"true","","","","","fullscreen","1","2.0.0","14511","pj2jmtf25zx","4928","","","","",""
"","","","","","html-keyboard-response","2","2.0.0","15790","pj2jmtf25zx","1277","Welcome to the experiment. Press any key to begin."," ","","",""
"","","","","","survey-text","3","2.0.0","19285","pj2jmtf25zx","3488","","{""participant_id"":""moose""}","","",""
"","","","","","html-keyboard-response","4","2.0.0","24318","pj2jmtf25zx","5032","
        <p>Welcome to the experiment.</p>
        <p>In this task, you will see pairs of images.</p>
        <p>Your job is to determine whether the image on the right is a rotated version of the image on the left.</p>
        <p>Press the <strong>F</strong> key if the images are the same.</p>
        <p>Press the <strong>J</strong> key if the images are different.</p>
        <p>Press any key to begin.</p>
    "," ","","",""
"","","","","","html-keyboard-response","5","2.0.0","25331","pj2jmtf25zx","null","<div style=""font-size: 75px;"">+</div>","null","","",""
"","","","","","image-keyboard-response","6","2.0.0","30404","pj2jmtf25zx","5066","stimuli/19_100.jpg","f","response","f","true"
"","","","","","html-keyboard-response","7","2.0.0","30909","pj2jmtf25zx","null","<p style=""border: 5px solid green;"">Correct!</p>","null","","",""
"","","","","","html-keyboard-response","8","2.0.0","31916","pj2jmtf25zx","null","<div style=""font-size: 75px;"">+</div>","null","","",""
"","","","","","image-keyboard-response","9","2.0.0","35318","pj2jmtf25zx","3400","stimuli/3_0_R.jpg","j","response","j","true"
"","","","","","html-keyboard-response","10","2.0.0","35821","pj2jmtf25zx","null","<p style=""border: 5px solid green;"">Correct!</p>","null","","",""
"","","","","","html-keyboard-response","11","2.0.0","36823","pj2jmtf25zx","null","<div style=""font-size: 75px;"">+</div>","null","","",""
"","","","","","image-keyboard-response","12","2.0.0","41924","pj2jmtf25zx","5099","stimuli/17_150.jpg","j","response","f","false"
"","","","","","html-keyboard-response","13","2.0.0","42441","pj2jmtf25zx","null","<p style=""border: 5px solid red;"">Incorrect.</p>","null","","",""
"","","","","","html-keyboard-response","14","2.0.0","43451","pj2jmtf25zx","null","<div style=""font-size: 75px;"">+</div>","null","","",""
"","","","","","image-keyboard-response","15","2.0.0","46647","pj2jmtf25zx","3194","stimuli/12_150_R.jpg","j","response","j","true"
"","","","","","html-keyboard-response","16","2.0.0","47163","pj2jmtf25zx","null","<p style=""border: 5px solid green;"">Correct!</p>","null","","",""
"","","","","","html-keyboard-response","17","2.0.0","48181","pj2jmtf25zx","null","<div style=""font-size: 75px;"">+</div>","null","","",""
"","","","","","image-keyboard-response","18","2.0.0","53775","pj2jmtf25zx","5592","stimuli/29_50_R.jpg","j","response","j","true"
"","","","","","html-keyboard-response","19","2.0.0","54289","pj2jmtf25zx","null","<p style=""border: 5px solid green;"">Correct!</p>","null","","",""
"","","","","","html-keyboard-response","20","2.0.0","55300","pj2jmtf25zx","null","<div style=""font-size: 75px;"">+</div>","null","","",""
"","","","","","image-keyboard-response","21","2.0.0","59184","pj2jmtf25zx","3882","stimuli/7_0_R.jpg","j","response","j","true"
"","","","","","html-keyboard-response","22","2.0.0","59693","pj2jmtf25zx","null","<p style=""border: 5px solid green;"">Correct!</p>","null","","",""
"","","","","","html-keyboard-response","23","2.0.0","60709","pj2jmtf25zx","null","<div style=""font-size: 75px;"">+</div>","null","","",""
"","","","","","image-keyboard-response","24","2.0.0","64337","pj2jmtf25zx","3626","stimuli/13_150_R.jpg","j","response","j","true"
"","","","","","html-keyboard-response","25","2.0.0","64844","pj2jmtf25zx","null","<p style=""border: 5px solid green;"">Correct!</p>","null","","",""
"","","","","","html-keyboard-response","26","2.0.0","65859","pj2jmtf25zx","null","<div style=""font-size: 75px;"">+</div>","null","","",""
"","","","","","image-keyboard-response","27","2.0.0","69994","pj2jmtf25zx","4133","stimuli/17_50_R.jpg","j","response","j","true"
"","","","","","html-keyboard-response","28","2.0.0","70507","pj2jmtf25zx","null","<p style=""border: 5px solid green;"">Correct!</p>","null","","",""
"","","","","","html-keyboard-response","29","2.0.0","71513","pj2jmtf25zx","null","<div style=""font-size: 75px;"">+</div>","null","","",""
"","","","","","image-keyboard-response","30","2.0.0","75254","pj2jmtf25zx","3739","stimuli/17_100_R.jpg","j","response","j","true"
"","","","","","html-keyboard-response","31","2.0.0","75760","pj2jmtf25zx","null","<p style=""border: 5px solid green;"">Correct!</p>","null","","",""
"","","","","","html-keyboard-response","32","2.0.0","76765","pj2jmtf25zx","null","<div style=""font-size: 75px;"">+</div>","null","","",""
"","","","","","image-keyboard-response","33","2.0.0","82698","pj2jmtf25zx","5931","stimuli/35_150_R.jpg","j","response","j","true"
"","","","","","html-keyboard-response","34","2.0.0","83206","pj2jmtf25zx","null","<p style=""border: 5px solid green;"">Correct!</p>","null","","",""
"","","","","","html-keyboard-response","35","2.0.0","84217","pj2jmtf25zx","null","<div style=""font-size: 75px;"">+</div>","null","","",""
"","","","","","image-keyboard-response","36","2.0.0","89086","pj2jmtf25zx","4867","stimuli/42_100.jpg","f","response","f","true"
"","","","","","html-keyboard-response","37","2.0.0","89591","pj2jmtf25zx","null","<p style=""border: 5px solid green;"">Correct!</p>","null","","",""
"","","","","","html-keyboard-response","38","2.0.0","90593","pj2jmtf25zx","null","<div style=""font-size: 75px;"">+</div>","null","","",""
"","","","","","image-keyboard-response","39","2.0.0","92694","pj2jmtf25zx","2099","stimuli/45_50.jpg","f","response","f","true"
"","","","","","html-keyboard-response","40","2.0.0","93212","pj2jmtf25zx","null","<p style=""border: 5px solid green;"">Correct!</p>","null","","",""
"","","","","","html-keyboard-response","41","2.0.0","94228","pj2jmtf25zx","null","<div style=""font-size: 75px;"">+</div>","null","","",""
"","","","","","image-keyboard-response","42","2.0.0","97576","pj2jmtf25zx","3347","stimuli/44_100_R.jpg","j","response","j","true"
"","","","","","html-keyboard-response","43","2.0.0","98089","pj2jmtf25zx","null","<p style=""border: 5px solid green;"">Correct!</p>","null","","",""
"","","","","","html-keyboard-response","44","2.0.0","99101","pj2jmtf25zx","null","<div style=""font-size: 75px;"">+</div>","null","","",""
"","","","","","image-keyboard-response","45","2.0.0","100622","pj2jmtf25zx","1520","stimuli/11_100.jpg","f","response","f","true"
"","","","","","html-keyboard-response","46","2.0.0","101125","pj2jmtf25zx","null","<p style=""border: 5px solid green;"">Correct!</p>","null","","",""
"","","","","","html-keyboard-response","47","2.0.0","102135","pj2jmtf25zx","null","<div style=""font-size: 75px;"">+</div>","null","","",""
"","","","","","image-keyboard-response","48","2.0.0","106289","pj2jmtf25zx","4153","stimuli/39_100_R.jpg","j","response","j","true"
"","","","","","html-keyboard-response","49","2.0.0","106794","pj2jmtf25zx","null","<p style=""border: 5px solid green;"">Correct!</p>","null","","",""
"","","","","","html-keyboard-response","50","2.0.0","107812","pj2jmtf25zx","null","<div style=""font-size: 75px;"">+</div>","null","","",""
"","","","","","image-keyboard-response","51","2.0.0","112173","pj2jmtf25zx","4359","stimuli/6_100_R.jpg","j","response","j","true"
"","","","","","html-keyboard-response","52","2.0.0","112679","pj2jmtf25zx","null","<p style=""border: 5px solid green;"">Correct!</p>","null","","",""
"","","","","","html-keyboard-response","53","2.0.0","113687","pj2jmtf25zx","null","<div style=""font-size: 75px;"">+</div>","null","","",""
"","","","","","image-keyboard-response","54","2.0.0","117757","pj2jmtf25zx","4068","stimuli/4_50.jpg","f","response","f","true"
"","","","","","html-keyboard-response","55","2.0.0","118260","pj2jmtf25zx","null","<p style=""border: 5px solid green;"">Correct!</p>","null","","",""
"","","","","","html-keyboard-response","56","2.0.0","119269","pj2jmtf25zx","null","<div style=""font-size: 75px;"">+</div>","null","","",""
"","","","","","image-keyboard-response","57","2.0.0","122526","pj2jmtf25zx","3256","stimuli/14_150.jpg","j","response","f","false"
"","","","","","html-keyboard-response","58","2.0.0","123036","pj2jmtf25zx","null","<p style=""border: 5px solid red;"">Incorrect.</p>","null","","",""
"","","","","","html-keyboard-response","59","2.0.0","124046","pj2jmtf25zx","null","<div style=""font-size: 75px;"">+</div>","null","","",""
"","","","","","image-keyboard-response","60","2.0.0","130540","pj2jmtf25zx","6493","stimuli/14_50_R.jpg","j","response","j","true"
"","","","","","html-keyboard-response","61","2.0.0","131042","pj2jmtf25zx","null","<p style=""border: 5px solid green;"">Correct!</p>","null","","",""
"","","","","","html-keyboard-response","62","2.0.0","132050","pj2jmtf25zx","null","<div style=""font-size: 75px;"">+</div>","null","","",""
"","","","","","image-keyboard-response","63","2.0.0","136862","pj2jmtf25zx","4810","stimuli/7_100.jpg","f","response","f","true"
"","","","","","html-keyboard-response","64","2.0.0","137380","pj2jmtf25zx","null","<p style=""border: 5px solid green;"">Correct!</p>","null","","",""
"","","","","","html-keyboard-response","65","2.0.0","138391","pj2jmtf25zx","null","<div style=""font-size: 75px;"">+</div>","null","","",""
"","","","","","image-keyboard-response","66","2.0.0","141784","pj2jmtf25zx","3391","stimuli/26_50_R.jpg","j","response","j","true"
"","","","","","html-keyboard-response","67","2.0.0","142290","pj2jmtf25zx","null","<p style=""border: 5px solid green;"">Correct!</p>","null","","",""
"","","","","","html-keyboard-response","68","2.0.0","143293","pj2jmtf25zx","null","<div style=""font-size: 75px;"">+</div>","null","","",""
"","","","","","image-keyboard-response","69","2.0.0","146781","pj2jmtf25zx","3487","stimuli/30_50.jpg","f","response","f","true"
"","","","","","html-keyboard-response","70","2.0.0","147290","pj2jmtf25zx","null","<p style=""border: 5px solid green;"">Correct!</p>","null","","",""
"","","","","","html-keyboard-response","71","2.0.0","148294","pj2jmtf25zx","null","<div style=""font-size: 75px;"">+</div>","null","","",""
"","","","","","image-keyboard-response","72","2.0.0","149626","pj2jmtf25zx","1330","stimuli/21_0.jpg","f","response","f","true"
"","","","","","html-keyboard-response","73","2.0.0","150132","pj2jmtf25zx","null","<p style=""border: 5px solid green;"">Correct!</p>","null","","",""
"","","","","","html-keyboard-response","74","2.0.0","151143","pj2jmtf25zx","null","<div style=""font-size: 75px;"">+</div>","null","","",""
"","","","","","image-keyboard-response","75","2.0.0","154136","pj2jmtf25zx","2991","stimuli/16_150_R.jpg","j","response","j","true"
"","","","","","html-keyboard-response","76","2.0.0","154644","pj2jmtf25zx","null","<p style=""border: 5px solid green;"">Correct!</p>","null","","",""
"","","","","","html-keyboard-response","77","2.0.0","155655","pj2jmtf25zx","null","<div style=""font-size: 75px;"">+</div>","null","","",""
"","","","","","image-keyboard-response","78","2.0.0","157199","pj2jmtf25zx","1542","stimuli/10_50.jpg","f","response","f","true"
"","","","","","html-keyboard-response","79","2.0.0","157708","pj2jmtf25zx","null","<p style=""border: 5px solid green;"">Correct!</p>","null","","",""
"","","","","","html-keyboard-response","80","2.0.0","158716","pj2jmtf25zx","null","<div style=""font-size: 75px;"">+</div>","null","","",""
"","","","","","image-keyboard-response","81","2.0.0","160987","pj2jmtf25zx","2269","stimuli/28_50_R.jpg","f","response","j","false"
"","","","","","html-keyboard-response","82","2.0.0","161503","pj2jmtf25zx","null","<p style=""border: 5px solid red;"">Incorrect.</p>","null","","",""
"","","","","","html-keyboard-response","83","2.0.0","162514","pj2jmtf25zx","null","<div style=""font-size: 75px;"">+</div>","null","","",""
"","","","","","image-keyboard-response","84","2.0.0","166516","pj2jmtf25zx","4000","stimuli/1_150_R.jpg","j","response","j","true"
"","","","","","html-keyboard-response","85","2.0.0","167024","pj2jmtf25zx","null","<p style=""border: 5px solid green;"">Correct!</p>","null","","",""
"","","","","","html-keyboard-response","86","2.0.0","168032","pj2jmtf25zx","null","<div style=""font-size: 75px;"">+</div>","null","","",""
"","","","","","image-keyboard-response","87","2.0.0","171659","pj2jmtf25zx","3626","stimuli/46_150.jpg","f","response","f","true"
"","","","","","html-keyboard-response","88","2.0.0","172162","pj2jmtf25zx","null","<p style=""border: 5px solid green;"">Correct!</p>","null","","",""
"","","","","","html-keyboard-response","89","2.0.0","173164","pj2jmtf25zx","null","<div style=""font-size: 75px;"">+</div>","null","","",""
"","","","","","image-keyboard-response","90","2.0.0","174938","pj2jmtf25zx","1772","stimuli/36_0.jpg","f","response","f","true"
"","","","","","html-keyboard-response","91","2.0.0","175449","pj2jmtf25zx","null","<p style=""border: 5px solid green;"">Correct!</p>","null","","",""
"","","","","","html-keyboard-response","92","2.0.0","176455","pj2jmtf25zx","null","<div style=""font-size: 75px;"">+</div>","null","","",""
"","","","","","image-keyboard-response","93","2.0.0","178348","pj2jmtf25zx","1891","stimuli/37_50.jpg","f","response","f","true"
"","","","","","html-keyboard-response","94","2.0.0","178850","pj2jmtf25zx","null","<p style=""border: 5px solid green;"">Correct!</p>","null","","",""
"","","","","","html-keyboard-response","95","2.0.0","179863","pj2jmtf25zx","null","<div style=""font-size: 75px;"">+</div>","null","","",""
"","","","","","image-keyboard-response","96","2.0.0","180861","pj2jmtf25zx","997","stimuli/35_0.jpg","f","response","f","true"
"","","","","","html-keyboard-response","97","2.0.0","181367","pj2jmtf25zx","null","<p style=""border: 5px solid green;"">Correct!</p>","null","","",""
"","","","","","html-keyboard-response","98","2.0.0","182374","pj2jmtf25zx","null","<div style=""font-size: 75px;"">+</div>","null","","",""
"","","","","","image-keyboard-response","99","2.0.0","183322","pj2jmtf25zx","946","stimuli/29_0.jpg","f","response","f","true"
"","","","","","html-keyboard-response","100","2.0.0","183832","pj2jmtf25zx","null","<p style=""border: 5px solid green;"">Correct!</p>","null","","",""
"","","","","","html-keyboard-response","101","2.0.0","184841","pj2jmtf25zx","null","<div style=""font-size: 75px;"">+</div>","null","","",""
"","","","","","image-keyboard-response","102","2.0.0","186782","pj2jmtf25zx","1939","stimuli/30_150.jpg","f","response","f","true"
"","","","","","html-keyboard-response","103","2.0.0","187288","pj2jmtf25zx","null","<p style=""border: 5px solid green;"">Correct!</p>","null","","",""
"","","","","","html-keyboard-response","104","2.0.0","188291","pj2jmtf25zx","null","<div style=""font-size: 75px;"">+</div>","null","","",""
"","","","","","image-keyboard-response","105","2.0.0","190369","pj2jmtf25zx","2076","stimuli/47_50.jpg","f","response","f","true"
"","","","","","html-keyboard-response","106","2.0.0","190882","pj2jmtf25zx","null","<p style=""border: 5px solid green;"">Correct!</p>","null","","",""
"","","","","","html-keyboard-response","107","2.0.0","191885","pj2jmtf25zx","null","<div style=""font-size: 75px;"">+</div>","null","","",""
"","","","","","image-keyboard-response","108","2.0.0","194627","pj2jmtf25zx","2741","stimuli/28_150.jpg","f","response","f","true"
"","","","","","html-keyboard-response","109","2.0.0","195129","pj2jmtf25zx","null","<p style=""border: 5px solid green;"">Correct!</p>","null","","",""
"","","","","","html-keyboard-response","110","2.0.0","196138","pj2jmtf25zx","null","<div style=""font-size: 75px;"">+</div>","null","","",""
"","","","","","image-keyboard-response","111","2.0.0","199460","pj2jmtf25zx","3320","stimuli/6_100.jpg","f","response","f","true"
"","","","","","html-keyboard-response","112","2.0.0","199962","pj2jmtf25zx","null","<p style=""border: 5px solid green;"">Correct!</p>","null","","",""
"","","","","","html-keyboard-response","113","2.0.0","200973","pj2jmtf25zx","null","<div style=""font-size: 75px;"">+</div>","null","","",""
"","","","","","image-keyboard-response","114","2.0.0","201911","pj2jmtf25zx","935","stimuli/4_0.jpg","f","response","f","true"
"","","","","","html-keyboard-response","115","2.0.0","202421","pj2jmtf25zx","null","<p style=""border: 5px solid green;"">Correct!</p>","null","","",""
"","","","","","html-keyboard-response","116","2.0.0","203426","pj2jmtf25zx","null","<div style=""font-size: 75px;"">+</div>","null","","",""
"","","","","","image-keyboard-response","117","2.0.0","205701","pj2jmtf25zx","2273","stimuli/25_150.jpg","f","response","f","true"
"","","","","","html-keyboard-response","118","2.0.0","206209","pj2jmtf25zx","null","<p style=""border: 5px solid green;"">Correct!</p>","null","","",""
"","","","","","html-keyboard-response","119","2.0.0","207220","pj2jmtf25zx","null","<div style=""font-size: 75px;"">+</div>","null","","",""
"","","","","","image-keyboard-response","120","2.0.0","209061","pj2jmtf25zx","1840","stimuli/9_50_R.jpg","j","response","j","true"
"","","","","","html-keyboard-response","121","2.0.0","209577","pj2jmtf25zx","null","<p style=""border: 5px solid green;"">Correct!</p>","null","","",""
"","","","","","html-keyboard-response","122","2.0.0","210584","pj2jmtf25zx","null","<div style=""font-size: 75px;"">+</div>","null","","",""
"","","","","","image-keyboard-response","123","2.0.0","212626","pj2jmtf25zx","2041","stimuli/4_100.jpg","f","response","f","true"
"","","","","","html-keyboard-response","124","2.0.0","213142","pj2jmtf25zx","null","<p style=""border: 5px solid green;"">Correct!</p>","null","","",""
"","","","","","html-keyboard-response","125","2.0.0","214152","pj2jmtf25zx","null","<div style=""font-size: 75px;"">+</div>","null","","",""
"","","","","","image-keyboard-response","126","2.0.0","220804","pj2jmtf25zx","6650","stimuli/31_150.jpg","f","response","f","true"
"","","","","","html-keyboard-response","127","2.0.0","221306","pj2jmtf25zx","null","<p style=""border: 5px solid green;"">Correct!</p>","null","","",""
"","","","","","html-keyboard-response","128","2.0.0","222322","pj2jmtf25zx","null","<div style=""font-size: 75px;"">+</div>","null","","",""
"","","","","","image-keyboard-response","129","2.0.0","230968","pj2jmtf25zx","8645","stimuli/45_150_R.jpg","j","response","j","true"
"","","","","","html-keyboard-response","130","2.0.0","231477","pj2jmtf25zx","null","<p style=""border: 5px solid green;"">Correct!</p>","null","","",""
"","","","","","html-keyboard-response","131","2.0.0","232491","pj2jmtf25zx","null","<div style=""font-size: 75px;"">+</div>","null","","",""
"","","","","","image-keyboard-response","132","2.0.0","234348","pj2jmtf25zx","1855","stimuli/30_50_R.jpg","j","response","j","true"
"","","","","","html-keyboard-response","133","2.0.0","234863","pj2jmtf25zx","null","<p style=""border: 5px solid green;"">Correct!</p>","null","","",""
"","","","","","html-keyboard-response","134","2.0.0","235878","pj2jmtf25zx","null","<div style=""font-size: 75px;"">+</div>","null","","",""
"","","","","","image-keyboard-response","135","2.0.0","238964","pj2jmtf25zx","3084","stimuli/38_100.jpg","f","response","f","true"
"","","","","","html-keyboard-response","136","2.0.0","239479","pj2jmtf25zx","null","<p style=""border: 5px solid green;"">Correct!</p>","null","","",""
"","","","","","html-keyboard-response","137","2.0.0","240488","pj2jmtf25zx","null","<div style=""font-size: 75px;"">+</div>","null","","",""
"","","","","","image-keyboard-response","138","2.0.0","243943","pj2jmtf25zx","3453","stimuli/43_100_R.jpg","j","response","j","true"
"","","","","","html-keyboard-response","139","2.0.0","244445","pj2jmtf25zx","null","<p style=""border: 5px solid green;"">Correct!</p>","null","","",""
"","","","","","html-keyboard-response","140","2.0.0","245461","pj2jmtf25zx","null","<div style=""font-size: 75px;"">+</div>","null","","",""
"","","","","","image-keyboard-response","141","2.0.0","247135","pj2jmtf25zx","1672","stimuli/47_100_R.jpg","j","response","j","true"
"","","","","","html-keyboard-response","142","2.0.0","247639","pj2jmtf25zx","null","<p style=""border: 5px solid green;"">Correct!</p>","null","","",""
"","","","","","html-keyboard-response","143","2.0.0","248644","pj2jmtf25zx","null","<div style=""font-size: 75px;"">+</div>","null","","",""
"","","","","","image-keyboard-response","144","2.0.0","251247","pj2jmtf25zx","2601","stimuli/19_100_R.jpg","j","response","j","true"
"","","","","","html-keyboard-response","145","2.0.0","251761","pj2jmtf25zx","null","<p style=""border: 5px solid green;"">Correct!</p>","null","","",""
"","","","","","html-keyboard-response","146","2.0.0","252765","pj2jmtf25zx","null","<div style=""font-size: 75px;"">+</div>","null","","",""
"","","","","","image-keyboard-response","147","2.0.0","254650","pj2jmtf25zx","1884","stimuli/33_0_R.jpg","j","response","j","true"
"","","","","","html-keyboard-response","148","2.0.0","255160","pj2jmtf25zx","null","<p style=""border: 5px solid green;"">Correct!</p>","null","","",""
"","","","","","html-keyboard-response","149","2.0.0","285164","pj2jmtf25zx","null","<p> Take a break! Experiment continues in 30 seconds . </p>","null","","",""
"","","","","","html-keyboard-response","150","2.0.0","286165","pj2jmtf25zx","null","<div style=""font-size: 75px;"">+</div>","null","","",""
"","","","","","image-keyboard-response","151","2.0.0","287881","pj2jmtf25zx","1713","stimuli/27_0_R.jpg","j","response","j","true"
"","","","","","html-keyboard-response","152","2.0.0","288392","pj2jmtf25zx","null","<p style=""border: 5px solid green;"">Correct!</p>","null","","",""
"","","","","","html-keyboard-response","153","2.0.0","289395","pj2jmtf25zx","null","<div style=""font-size: 75px;"">+</div>","null","","",""
"","","","","","image-keyboard-response","154","2.0.0","291047","pj2jmtf25zx","1651","stimuli/8_150_R.jpg","f","response","j","false"
"","","","","","html-keyboard-response","155","2.0.0","291555","pj2jmtf25zx","null","<p style=""border: 5px solid red;"">Incorrect.</p>","null","","",""
"","","","","","html-keyboard-response","156","2.0.0","292562","pj2jmtf25zx","null","<div style=""font-size: 75px;"">+</div>","null","","",""
"","","","","","image-keyboard-response","157","2.0.0","295120","pj2jmtf25zx","2556","stimuli/35_0_R.jpg","j","response","j","true"
"","","","","","html-keyboard-response","158","2.0.0","295636","pj2jmtf25zx","null","<p style=""border: 5px solid green;"">Correct!</p>","null","","",""
"","","","","","html-keyboard-response","159","2.0.0","296648","pj2jmtf25zx","null","<div style=""font-size: 75px;"">+</div>","null","","",""
"","","","","","image-keyboard-response","160","2.0.0","299198","pj2jmtf25zx","2548","stimuli/4_150.jpg","f","response","f","true"
"","","","","","html-keyboard-response","161","2.0.0","299700","pj2jmtf25zx","null","<p style=""border: 5px solid green;"">Correct!</p>","null","","",""
"","","","","","html-keyboard-response","162","2.0.0","300708","pj2jmtf25zx","null","<div style=""font-size: 75px;"">+</div>","null","","",""
"","","","","","image-keyboard-response","163","2.0.0","301755","pj2jmtf25zx","1045","stimuli/30_0.jpg","f","response","f","true"
"","","","","","html-keyboard-response","164","2.0.0","302258","pj2jmtf25zx","null","<p style=""border: 5px solid green;"">Correct!</p>","null","","",""
"","","","","","html-keyboard-response","165","2.0.0","303275","pj2jmtf25zx","null","<div style=""font-size: 75px;"">+</div>","null","","",""
"","","","","","image-keyboard-response","166","2.0.0","304451","pj2jmtf25zx","1174","stimuli/34_0.jpg","f","response","f","true"
"","","","","","html-keyboard-response","167","2.0.0","304961","pj2jmtf25zx","null","<p style=""border: 5px solid green;"">Correct!</p>","null","","",""
"","","","","","html-keyboard-response","168","2.0.0","305964","pj2jmtf25zx","null","<div style=""font-size: 75px;"">+</div>","null","","",""
"","","","","","image-keyboard-response","169","2.0.0","307763","pj2jmtf25zx","1797","stimuli/30_0_R.jpg","j","response","j","true"
"","","","","","html-keyboard-response","170","2.0.0","308272","pj2jmtf25zx","null","<p style=""border: 5px solid green;"">Correct!</p>","null","","",""
"","","","","","html-keyboard-response","171","2.0.0","309276","pj2jmtf25zx","null","<div style=""font-size: 75px;"">+</div>","null","","",""
"","","","","","image-keyboard-response","172","2.0.0","311169","pj2jmtf25zx","1891","stimuli/3_100.jpg","f","response","f","true"
"","","","","","html-keyboard-response","173","2.0.0","311671","pj2jmtf25zx","null","<p style=""border: 5px solid green;"">Correct!</p>","null","","",""
"","","","","","html-keyboard-response","174","2.0.0","312680","pj2jmtf25zx","null","<div style=""font-size: 75px;"">+</div>","null","","",""
"","","","","","image-keyboard-response","175","2.0.0","313627","pj2jmtf25zx","945","stimuli/32_0.jpg","f","response","f","true"
"","","","","","html-keyboard-response","176","2.0.0","314141","pj2jmtf25zx","null","<p style=""border: 5px solid green;"">Correct!</p>","null","","",""
"","","","","","html-keyboard-response","177","2.0.0","315145","pj2jmtf25zx","null","<div style=""font-size: 75px;"">+</div>","null","","",""
"","","","","","image-keyboard-response","178","2.0.0","316160","pj2jmtf25zx","1014","stimuli/15_0_R.jpg","j","response","j","true"
"","","","","","html-keyboard-response","179","2.0.0","316665","pj2jmtf25zx","null","<p style=""border: 5px solid green;"">Correct!</p>","null","","",""
"","","","","","html-keyboard-response","180","2.0.0","317682","pj2jmtf25zx","null","<div style=""font-size: 75px;"">+</div>","null","","",""
"","","","","","image-keyboard-response","181","2.0.0","319082","pj2jmtf25zx","1399","stimuli/41_100.jpg","f","response","f","true"
"","","","","","html-keyboard-response","182","2.0.0","319584","pj2jmtf25zx","null","<p style=""border: 5px solid green;"">Correct!</p>","null","","",""
"","","","","","html-keyboard-response","183","2.0.0","320588","pj2jmtf25zx","null","<div style=""font-size: 75px;"">+</div>","null","","",""
"","","","","","image-keyboard-response","184","2.0.0","323118","pj2jmtf25zx","2528","stimuli/48_100.jpg","f","response","f","true"
"","","","","","html-keyboard-response","185","2.0.0","323627","pj2jmtf25zx","null","<p style=""border: 5px solid green;"">Correct!</p>","null","","",""
"","","","","","html-keyboard-response","186","2.0.0","324641","pj2jmtf25zx","null","<div style=""font-size: 75px;"">+</div>","null","","",""
"","","","","","image-keyboard-response","187","2.0.0","325451","pj2jmtf25zx","808","stimuli/16_0.jpg","f","response","f","true"
"","","","","","html-keyboard-response","188","2.0.0","325961","pj2jmtf25zx","null","<p style=""border: 5px solid green;"">Correct!</p>","null","","",""
"","","","","","html-keyboard-response","189","2.0.0","326971","pj2jmtf25zx","null","<div style=""font-size: 75px;"">+</div>","null","","",""
"","","","","","image-keyboard-response","190","2.0.0","329587","pj2jmtf25zx","2614","stimuli/37_150.jpg","f","response","f","true"
"","","","","","html-keyboard-response","191","2.0.0","330096","pj2jmtf25zx","null","<p style=""border: 5px solid green;"">Correct!</p>","null","","",""
"","","","","","html-keyboard-response","192","2.0.0","331108","pj2jmtf25zx","null","<div style=""font-size: 75px;"">+</div>","null","","",""
"","","","","","image-keyboard-response","193","2.0.0","333636","pj2jmtf25zx","2526","stimuli/28_100_R.jpg","j","response","j","true"
"","","","","","html-keyboard-response","194","2.0.0","334142","pj2jmtf25zx","null","<p style=""border: 5px solid green;"">Correct!</p>","null","","",""
"","","","","","html-keyboard-response","195","2.0.0","335155","pj2jmtf25zx","null","<div style=""font-size: 75px;"">+</div>","null","","",""
"","","","","","image-keyboard-response","196","2.0.0","335939","pj2jmtf25zx","783","stimuli/42_0.jpg","f","response","f","true"
"","","","","","html-keyboard-response","197","2.0.0","336442","pj2jmtf25zx","null","<p style=""border: 5px solid green;"">Correct!</p>","null","","",""
"","","","","","html-keyboard-response","198","2.0.0","337454","pj2jmtf25zx","null","<div style=""font-size: 75px;"">+</div>","null","","",""
"","","","","","image-keyboard-response","199","2.0.0","338478","pj2jmtf25zx","1022","stimuli/11_50.jpg","f","response","f","true"
"","","","","","html-keyboard-response","200","2.0.0","338991","pj2jmtf25zx","null","<p style=""border: 5px solid green;"">Correct!</p>","null","","",""
"","","","","","html-keyboard-response","201","2.0.0","340006","pj2jmtf25zx","null","<div style=""font-size: 75px;"">+</div>","null","","",""
"","","","","","image-keyboard-response","202","2.0.0","341489","pj2jmtf25zx","1481","stimuli/5_50.jpg","f","response","f","true"
"","","","","","html-keyboard-response","203","2.0.0","342001","pj2jmtf25zx","null","<p style=""border: 5px solid green;"">Correct!</p>","null","","",""
"","","","","","html-keyboard-response","204","2.0.0","343010","pj2jmtf25zx","null","<div style=""font-size: 75px;"">+</div>","null","","",""
"","","","","","image-keyboard-response","205","2.0.0","344410","pj2jmtf25zx","1398","stimuli/10_150.jpg","f","response","f","true"
"","","","","","html-keyboard-response","206","2.0.0","344926","pj2jmtf25zx","null","<p style=""border: 5px solid green;"">Correct!</p>","null","","",""
"","","","","","html-keyboard-response","207","2.0.0","345943","pj2jmtf25zx","null","<div style=""font-size: 75px;"">+</div>","null","","",""
"","","","","","image-keyboard-response","208","2.0.0","347749","pj2jmtf25zx","1804","stimuli/2_0_R.jpg","j","response","j","true"
"","","","","","html-keyboard-response","209","2.0.0","348255","pj2jmtf25zx","null","<p style=""border: 5px solid green;"">Correct!</p>","null","","",""
"","","","","","html-keyboard-response","210","2.0.0","349258","pj2jmtf25zx","null","<div style=""font-size: 75px;"">+</div>","null","","",""
"","","","","","image-keyboard-response","211","2.0.0","350885","pj2jmtf25zx","1625","stimuli/2_50_R.jpg","j","response","j","true"
"","","","","","html-keyboard-response","212","2.0.0","351394","pj2jmtf25zx","null","<p style=""border: 5px solid green;"">Correct!</p>","null","","",""
"","","","","","html-keyboard-response","213","2.0.0","352402","pj2jmtf25zx","null","<div style=""font-size: 75px;"">+</div>","null","","",""
"","","","","","image-keyboard-response","214","2.0.0","353391","pj2jmtf25zx","988","stimuli/28_0.jpg","f","response","f","true"
"","","","","","html-keyboard-response","215","2.0.0","353897","pj2jmtf25zx","null","<p style=""border: 5px solid green;"">Correct!</p>","null","","",""
"","","","","","html-keyboard-response","216","2.0.0","354909","pj2jmtf25zx","null","<div style=""font-size: 75px;"">+</div>","null","","",""
"","","","","","image-keyboard-response","217","2.0.0","357399","pj2jmtf25zx","2489","stimuli/36_0_R.jpg","j","response","j","true"
"","","","","","html-keyboard-response","218","2.0.0","357909","pj2jmtf25zx","null","<p style=""border: 5px solid green;"">Correct!</p>","null","","",""
"","","","","","html-keyboard-response","219","2.0.0","358917","pj2jmtf25zx","null","<div style=""font-size: 75px;"">+</div>","null","","",""
"","","","","","image-keyboard-response","220","2.0.0","360658","pj2jmtf25zx","1740","stimuli/29_100.jpg","f","response","f","true"
"","","","","","html-keyboard-response","221","2.0.0","361166","pj2jmtf25zx","null","<p style=""border: 5px solid green;"">Correct!</p>","null","","",""
"","","","","","html-keyboard-response","222","2.0.0","362183","pj2jmtf25zx","null","<div style=""font-size: 75px;"">+</div>","null","","",""
"","","","","","image-keyboard-response","223","2.0.0","365084","pj2jmtf25zx","2900","stimuli/6_50.jpg","f","response","f","true"
"","","","","","html-keyboard-response","224","2.0.0","365597","pj2jmtf25zx","null","<p style=""border: 5px solid green;"">Correct!</p>","null","","",""
"","","","","","html-keyboard-response","225","2.0.0","366613","pj2jmtf25zx","null","<div style=""font-size: 75px;"">+</div>","null","","",""
"","","","","","image-keyboard-response","226","2.0.0","369239","pj2jmtf25zx","2624","stimuli/37_150_R.jpg","f","response","j","false"
"","","","","","html-keyboard-response","227","2.0.0","369745","pj2jmtf25zx","null","<p style=""border: 5px solid red;"">Incorrect.</p>","null","","",""
"","","","","","html-keyboard-response","228","2.0.0","370751","pj2jmtf25zx","null","<div style=""font-size: 75px;"">+</div>","null","","",""
"","","","","","image-keyboard-response","229","2.0.0","372429","pj2jmtf25zx","1676","stimuli/4_150_R.jpg","j","response","j","true"
"","","","","","html-keyboard-response","230","2.0.0","372945","pj2jmtf25zx","null","<p style=""border: 5px solid green;"">Correct!</p>","null","","",""
"","","","","","html-keyboard-response","231","2.0.0","373954","pj2jmtf25zx","null","<div style=""font-size: 75px;"">+</div>","null","","",""
"","","","","","image-keyboard-response","232","2.0.0","375566","pj2jmtf25zx","1610","stimuli/20_100_R.jpg","j","response","j","true"
"","","","","","html-keyboard-response","233","2.0.0","376071","pj2jmtf25zx","null","<p style=""border: 5px solid green;"">Correct!</p>","null","","",""
"","","","","","html-keyboard-response","234","2.0.0","377081","pj2jmtf25zx","null","<div style=""font-size: 75px;"">+</div>","null","","",""
"","","","","","image-keyboard-response","235","2.0.0","378629","pj2jmtf25zx","1546","stimuli/46_50.jpg","f","response","f","true"
"","","","","","html-keyboard-response","236","2.0.0","379147","pj2jmtf25zx","null","<p style=""border: 5px solid green;"">Correct!</p>","null","","",""
"","","","","","html-keyboard-response","237","2.0.0","380152","pj2jmtf25zx","null","<div style=""font-size: 75px;"">+</div>","null","","",""
"","","","","","image-keyboard-response","238","2.0.0","383712","pj2jmtf25zx","3559","stimuli/38_150.jpg","f","response","f","true"
"","","","","","html-keyboard-response","239","2.0.0","384220","pj2jmtf25zx","null","<p style=""border: 5px solid green;"">Correct!</p>","null","","",""
"","","","","","html-keyboard-response","240","2.0.0","385229","pj2jmtf25zx","null","<div style=""font-size: 75px;"">+</div>","null","","",""
"","","","","","image-keyboard-response","241","2.0.0","389129","pj2jmtf25zx","3898","stimuli/32_150_R.jpg","j","response","j","true"
"","","","","","html-keyboard-response","242","2.0.0","389636","pj2jmtf25zx","null","<p style=""border: 5px solid green;"">Correct!</p>","null","","",""
"","","","","","html-keyboard-response","243","2.0.0","390643","pj2jmtf25zx","null","<div style=""font-size: 75px;"">+</div>","null","","",""
"","","","","","image-keyboard-response","244","2.0.0","392679","pj2jmtf25zx","2034","stimuli/34_150_R.jpg","j","response","j","true"
"","","","","","html-keyboard-response","245","2.0.0","393195","pj2jmtf25zx","null","<p style=""border: 5px solid green;"">Correct!</p>","null","","",""
"","","","","","html-keyboard-response","246","2.0.0","394200","pj2jmtf25zx","null","<div style=""font-size: 75px;"">+</div>","null","","",""
"","","","","","image-keyboard-response","247","2.0.0","395229","pj2jmtf25zx","1028","stimuli/27_0.jpg","f","response","f","true"
"","","","","","html-keyboard-response","248","2.0.0","395736","pj2jmtf25zx","null","<p style=""border: 5px solid green;"">Correct!</p>","null","","",""
"","","","","","html-keyboard-response","249","2.0.0","396746","pj2jmtf25zx","null","<div style=""font-size: 75px;"">+</div>","null","","",""
"","","","","","image-keyboard-response","250","2.0.0","398021","pj2jmtf25zx","1273","stimuli/22_0_R.jpg","j","response","j","true"
"","","","","","html-keyboard-response","251","2.0.0","398531","pj2jmtf25zx","null","<p style=""border: 5px solid green;"">Correct!</p>","null","","",""
"","","","","","html-keyboard-response","252","2.0.0","399545","pj2jmtf25zx","null","<div style=""font-size: 75px;"">+</div>","null","","",""
"","","","","","image-keyboard-response","253","2.0.0","400874","pj2jmtf25zx","1327","stimuli/18_0_R.jpg","j","response","j","true"
"","","","","","html-keyboard-response","254","2.0.0","401379","pj2jmtf25zx","null","<p style=""border: 5px solid green;"">Correct!</p>","null","","",""
"","","","","","html-keyboard-response","255","2.0.0","402385","pj2jmtf25zx","null","<div style=""font-size: 75px;"">+</div>","null","","",""
"","","","","","image-keyboard-response","256","2.0.0","403738","pj2jmtf25zx","1351","stimuli/19_150_R.jpg","f","response","j","false"
"","","","","","html-keyboard-response","257","2.0.0","404242","pj2jmtf25zx","null","<p style=""border: 5px solid red;"">Incorrect.</p>","null","","",""
"","","","","","html-keyboard-response","258","2.0.0","405245","pj2jmtf25zx","null","<div style=""font-size: 75px;"">+</div>","null","","",""
"","","","","","image-keyboard-response","259","2.0.0","407670","pj2jmtf25zx","2423","stimuli/16_50_R.jpg","j","response","j","true"
"","","","","","html-keyboard-response","260","2.0.0","408185","pj2jmtf25zx","null","<p style=""border: 5px solid green;"">Correct!</p>","null","","",""
"","","","","","html-keyboard-response","261","2.0.0","409202","pj2jmtf25zx","null","<div style=""font-size: 75px;"">+</div>","null","","",""
"","","","","","image-keyboard-response","262","2.0.0","411879","pj2jmtf25zx","2675","stimuli/8_100.jpg","f","response","f","true"
"","","","","","html-keyboard-response","263","2.0.0","412384","pj2jmtf25zx","null","<p style=""border: 5px solid green;"">Correct!</p>","null","","",""
"","","","","","html-keyboard-response","264","2.0.0","413389","pj2jmtf25zx","null","<div style=""font-size: 75px;"">+</div>","null","","",""
"","","","","","image-keyboard-response","265","2.0.0","414943","pj2jmtf25zx","1552","stimuli/27_100_R.jpg","j","response","j","true"
"","","","","","html-keyboard-response","266","2.0.0","415446","pj2jmtf25zx","null","<p style=""border: 5px solid green;"">Correct!</p>","null","","",""
"","","","","","html-keyboard-response","267","2.0.0","416457","pj2jmtf25zx","null","<div style=""font-size: 75px;"">+</div>","null","","",""
"","","","","","image-keyboard-response","268","2.0.0","420453","pj2jmtf25zx","3995","stimuli/34_100_R.jpg","j","response","j","true"
"","","","","","html-keyboard-response","269","2.0.0","420961","pj2jmtf25zx","null","<p style=""border: 5px solid green;"">Correct!</p>","null","","",""
"","","","","","html-keyboard-response","270","2.0.0","421972","pj2jmtf25zx","null","<div style=""font-size: 75px;"">+</div>","null","","",""
"","","","","","image-keyboard-response","271","2.0.0","424055","pj2jmtf25zx","2082","stimuli/46_50_R.jpg","j","response","j","true"
"","","","","","html-keyboard-response","272","2.0.0","424561","pj2jmtf25zx","null","<p style=""border: 5px solid green;"">Correct!</p>","null","","",""
"","","","","","html-keyboard-response","273","2.0.0","425571","pj2jmtf25zx","null","<div style=""font-size: 75px;"">+</div>","null","","",""
"","","","","","image-keyboard-response","274","2.0.0","427361","pj2jmtf25zx","1788","stimuli/33_50.jpg","f","response","f","true"
"","","","","","html-keyboard-response","275","2.0.0","427874","pj2jmtf25zx","null","<p style=""border: 5px solid green;"">Correct!</p>","null","","",""
"","","","","","html-keyboard-response","276","2.0.0","428878","pj2jmtf25zx","null","<div style=""font-size: 75px;"">+</div>","null","","",""
"","","","","","image-keyboard-response","277","2.0.0","430462","pj2jmtf25zx","1582","stimuli/39_50_R.jpg","j","response","j","true"
"","","","","","html-keyboard-response","278","2.0.0","430966","pj2jmtf25zx","null","<p style=""border: 5px solid green;"">Correct!</p>","null","","",""
"","","","","","html-keyboard-response","279","2.0.0","431974","pj2jmtf25zx","null","<div style=""font-size: 75px;"">+</div>","null","","",""
"","","","","","image-keyboard-response","280","2.0.0","433770","pj2jmtf25zx","1794","stimuli/22_50_R.jpg","j","response","j","true"
"","","","","","html-keyboard-response","281","2.0.0","434284","pj2jmtf25zx","null","<p style=""border: 5px solid green;"">Correct!</p>","null","","",""
"","","","","","html-keyboard-response","282","2.0.0","435297","pj2jmtf25zx","null","<div style=""font-size: 75px;"">+</div>","null","","",""
"","","","","","image-keyboard-response","283","2.0.0","437694","pj2jmtf25zx","2395","stimuli/21_150.jpg","f","response","f","true"
"","","","","","html-keyboard-response","284","2.0.0","438199","pj2jmtf25zx","null","<p style=""border: 5px solid green;"">Correct!</p>","null","","",""
"","","","","","html-keyboard-response","285","2.0.0","439202","pj2jmtf25zx","null","<div style=""font-size: 75px;"">+</div>","null","","",""
"","","","","","image-keyboard-response","286","2.0.0","440628","pj2jmtf25zx","1424","stimuli/15_100_R.jpg","j","response","j","true"
"","","","","","html-keyboard-response","287","2.0.0","441131","pj2jmtf25zx","null","<p style=""border: 5px solid green;"">Correct!</p>","null","","",""
"","","","","","html-keyboard-response","288","2.0.0","442141","pj2jmtf25zx","null","<div style=""font-size: 75px;"">+</div>","null","","",""
"","","","","","image-keyboard-response","289","2.0.0","443739","pj2jmtf25zx","1597","stimuli/44_0_R.jpg","j","response","j","true"
"","","","","","html-keyboard-response","290","2.0.0","444255","pj2jmtf25zx","null","<p style=""border: 5px solid green;"">Correct!</p>","null","","",""
"","","","","","html-keyboard-response","291","2.0.0","445261","pj2jmtf25zx","null","<div style=""font-size: 75px;"">+</div>","null","","",""
"","","","","","image-keyboard-response","292","2.0.0","446690","pj2jmtf25zx","1427","stimuli/28_50.jpg","f","response","f","true"
"","","","","","html-keyboard-response","293","2.0.0","447200","pj2jmtf25zx","null","<p style=""border: 5px solid green;"">Correct!</p>","null","","",""
"","","","","","html-keyboard-response","294","2.0.0","449003","pj2jmtf25zx","1802","<p>Thank you for participating!</p><p>Please press space to answer our survey.</p>"," ","","",""
"","","","","","survey-html-form","295","null","589989","pj2jmtf25zx","140973","","{""response_1"":""Moderately clear and lively"",""response_2"":""Moderately clear and lively"",""response_3"":""Dim and vague; flat"",""response_4"":""Clear and lively"",""response_5"":""Clear and lively"",""response_6"":""Moderately clear and lively"",""response_7"":""Clear and lively"",""response_8"":""Moderately clear and lively"",""response_9"":""Clear and lively"",""response_10"":""Clear and lively"",""response_11"":""Perfectly clear and lively as real seeing"",""response_12"":""Clear and lively"",""response_13"":""Moderately clear and lively"",""response_14"":""Dim and vague; flat"",""response_15"":""Clear and lively"",""response_16"":""Dim and vague; flat""}","","",""
"","","","","","survey-html-form","296","null","606704","pj2jmtf25zx","16710","","{""age"":""21"",""gender"":""male"",""education"":""high-school"",""handedness"":""right"",""vision"":""normal"",""technical_difficulties"":"""",""knowledge_check"":""""}","","",""
