"success","timeout","failed_images","failed_audio","failed_video","trial_type","trial_index","plugin_version","time_elapsed","random_id","rt","stimulus","response","task","correct_response","correct"
"true","false","[]","[]","[]","preload","0","2.0.0","14981","pjga672uojm","","","","","",""
"true","","","","","fullscreen","1","2.0.0","16914","pjga672uojm","917","","","","",""
"","","","","","html-keyboard-response","2","2.0.0","17592","pjga672uojm","676","Welcome to the experiment. Press any key to begin."," ","","",""
"","","","","","survey-text","3","2.0.0","19635","pjga672uojm","2038","","{""participant_id"":""axolotl""}","","",""
"","","","","","html-keyboard-response","4","2.0.0","30557","pjga672uojm","10921","
        <p>Welcome to the experiment.</p>
        <p>In this task, you will see pairs of images.</p>
        <p>Your job is to determine whether the image on the right is a rotated version of the image on the left.</p>
        <p>Press the <strong>F</strong> key if the images are the same.</p>
        <p>Press the <strong>J</strong> key if the images are different.</p>
        <p>Press any key to begin.</p>
    "," ","","",""
"","","","","","html-keyboard-response","5","2.0.0","31561","pjga672uojm","null","<div style=""font-size: 75px;"">+</div>","null","","",""
"","","","","","image-keyboard-response","6","2.0.0","36224","pjga672uojm","4653","stimuli/25_50_R.jpg","f","response","j","false"
"","","","","","html-keyboard-response","7","2.0.0","36728","pjga672uojm","null","<p style=""border: 5px solid red;"">Incorrect.</p>","null","","",""
"","","","","","html-keyboard-response","8","2.0.0","37744","pjga672uojm","null","<div style=""font-size: 75px;"">+</div>","null","","",""
"","","","","","image-keyboard-response","9","2.0.0","42499","pjga672uojm","4753","stimuli/32_50_R.jpg","f","response","j","false"
"","","","","","html-keyboard-response","10","2.0.0","43003","pjga672uojm","null","<p style=""border: 5px solid red;"">Incorrect.</p>","null","","",""
"","","","","","html-keyboard-response","11","2.0.0","44008","pjga672uojm","null","<div style=""font-size: 75px;"">+</div>","null","","",""
"","","","","","image-keyboard-response","12","2.0.0","47097","pjga672uojm","3088","stimuli/12_150_R.jpg","j","response","j","true"
"","","","","","html-keyboard-response","13","2.0.0","47615","pjga672uojm","null","<p style=""border: 5px solid green;"">Correct!</p>","null","","",""
"","","","","","html-keyboard-response","14","2.0.0","48628","pjga672uojm","null","<div style=""font-size: 75px;"">+</div>","null","","",""
"","","","","","image-keyboard-response","15","2.0.0","51313","pjga672uojm","2682","stimuli/6_100.jpg","j","response","f","false"
"","","","","","html-keyboard-response","16","2.0.0","51819","pjga672uojm","null","<p style=""border: 5px solid red;"">Incorrect.</p>","null","","",""
"","","","","","html-keyboard-response","17","2.0.0","52823","pjga672uojm","null","<div style=""font-size: 75px;"">+</div>","null","","",""
"","","","","","image-keyboard-response","18","2.0.0","58110","pjga672uojm","5285","stimuli/37_100_R.jpg","j","response","j","true"
"","","","","","html-keyboard-response","19","2.0.0","58620","pjga672uojm","null","<p style=""border: 5px solid green;"">Correct!</p>","null","","",""
"","","","","","html-keyboard-response","20","2.0.0","59625","pjga672uojm","null","<div style=""font-size: 75px;"">+</div>","null","","",""
"","","","","","image-keyboard-response","21","2.0.0","61115","pjga672uojm","1488","stimuli/20_50.jpg","f","response","f","true"
"","","","","","html-keyboard-response","22","2.0.0","61627","pjga672uojm","null","<p style=""border: 5px solid green;"">Correct!</p>","null","","",""
"","","","","","html-keyboard-response","23","2.0.0","62650","pjga672uojm","null","<div style=""font-size: 75px;"">+</div>","null","","",""
"","","","","","image-keyboard-response","24","2.0.0","65913","pjga672uojm","3261","stimuli/44_100_R.jpg","j","response","j","true"
"","","","","","html-keyboard-response","25","2.0.0","66415","pjga672uojm","null","<p style=""border: 5px solid green;"">Correct!</p>","null","","",""
"","","","","","html-keyboard-response","26","2.0.0","67419","pjga672uojm","null","<div style=""font-size: 75px;"">+</div>","null","","",""
"","","","","","image-keyboard-response","27","2.0.0","70403","pjga672uojm","2982","stimuli/21_50_R.jpg","j","response","j","true"
"","","","","","html-keyboard-response","28","2.0.0","70909","pjga672uojm","null","<p style=""border: 5px solid green;"">Correct!</p>","null","","",""
"","","","","","html-keyboard-response","29","2.0.0","71922","pjga672uojm","null","<div style=""font-size: 75px;"">+</div>","null","","",""
"","","","","","image-keyboard-response","30","2.0.0","74965","pjga672uojm","3041","stimuli/23_50.jpg","j","response","f","false"
"","","","","","html-keyboard-response","31","2.0.0","75467","pjga672uojm","null","<p style=""border: 5px solid red;"">Incorrect.</p>","null","","",""
"","","","","","html-keyboard-response","32","2.0.0","76474","pjga672uojm","null","<div style=""font-size: 75px;"">+</div>","null","","",""
"","","","","","image-keyboard-response","33","2.0.0","77362","pjga672uojm","886","stimuli/19_0.jpg","f","response","f","true"
"","","","","","html-keyboard-response","34","2.0.0","77871","pjga672uojm","null","<p style=""border: 5px solid green;"">Correct!</p>","null","","",""
"","","","","","html-keyboard-response","35","2.0.0","78873","pjga672uojm","null","<div style=""font-size: 75px;"">+</div>","null","","",""
"","","","","","image-keyboard-response","36","2.0.0","82631","pjga672uojm","3756","stimuli/21_150.jpg","j","response","f","false"
"","","","","","html-keyboard-response","37","2.0.0","83133","pjga672uojm","null","<p style=""border: 5px solid red;"">Incorrect.</p>","null","","",""
"","","","","","html-keyboard-response","38","2.0.0","84146","pjga672uojm","null","<div style=""font-size: 75px;"">+</div>","null","","",""
"","","","","","image-keyboard-response","39","2.0.0","91243","pjga672uojm","7095","stimuli/38_150.jpg","f","response","f","true"
"","","","","","html-keyboard-response","40","2.0.0","91749","pjga672uojm","null","<p style=""border: 5px solid green;"">Correct!</p>","null","","",""
"","","","","","html-keyboard-response","41","2.0.0","92756","pjga672uojm","null","<div style=""font-size: 75px;"">+</div>","null","","",""
"","","","","","image-keyboard-response","42","2.0.0","93875","pjga672uojm","1117","stimuli/5_0.jpg","f","response","f","true"
"","","","","","html-keyboard-response","43","2.0.0","94384","pjga672uojm","null","<p style=""border: 5px solid green;"">Correct!</p>","null","","",""
"","","","","","html-keyboard-response","44","2.0.0","95387","pjga672uojm","null","<div style=""font-size: 75px;"">+</div>","null","","",""
"","","","","","image-keyboard-response","45","2.0.0","101101","pjga672uojm","5717","stimuli/42_100_R.jpg","j","response","j","true"
"","","","","","html-keyboard-response","46","2.0.0","101606","pjga672uojm","null","<p style=""border: 5px solid green;"">Correct!</p>","null","","",""
"","","","","","html-keyboard-response","47","2.0.0","102612","pjga672uojm","null","<div style=""font-size: 75px;"">+</div>","null","","",""
"","","","","","image-keyboard-response","48","2.0.0","105771","pjga672uojm","3157","stimuli/18_100.jpg","f","response","f","true"
"","","","","","html-keyboard-response","49","2.0.0","106278","pjga672uojm","null","<p style=""border: 5px solid green;"">Correct!</p>","null","","",""
"","","","","","html-keyboard-response","50","2.0.0","107282","pjga672uojm","null","<div style=""font-size: 75px;"">+</div>","null","","",""
"","","","","","image-keyboard-response","51","2.0.0","108372","pjga672uojm","1089","stimuli/37_0.jpg","f","response","f","true"
"","","","","","html-keyboard-response","52","2.0.0","108888","pjga672uojm","null","<p style=""border: 5px solid green;"">Correct!</p>","null","","",""
"","","","","","html-keyboard-response","53","2.0.0","109896","pjga672uojm","null","<div style=""font-size: 75px;"">+</div>","null","","",""
"","","","","","image-keyboard-response","54","2.0.0","115646","pjga672uojm","5748","stimuli/26_50.jpg","f","response","f","true"
"","","","","","html-keyboard-response","55","2.0.0","116155","pjga672uojm","null","<p style=""border: 5px solid green;"">Correct!</p>","null","","",""
"","","","","","html-keyboard-response","56","2.0.0","117163","pjga672uojm","null","<div style=""font-size: 75px;"">+</div>","null","","",""
"","","","","","image-keyboard-response","57","2.0.0","118305","pjga672uojm","1140","stimuli/15_150_R.jpg","j","response","j","true"
"","","","","","html-keyboard-response","58","2.0.0","118812","pjga672uojm","null","<p style=""border: 5px solid green;"">Correct!</p>","null","","",""
"","","","","","html-keyboard-response","59","2.0.0","119820","pjga672uojm","null","<div style=""font-size: 75px;"">+</div>","null","","",""
"","","","","","image-keyboard-response","60","2.0.0","122252","pjga672uojm","2431","stimuli/43_50.jpg","j","response","f","false"
"","","","","","html-keyboard-response","61","2.0.0","122762","pjga672uojm","null","<p style=""border: 5px solid red;"">Incorrect.</p>","null","","",""
"","","","","","html-keyboard-response","62","2.0.0","123764","pjga672uojm","null","<div style=""font-size: 75px;"">+</div>","null","","",""
"","","","","","image-keyboard-response","63","2.0.0","127496","pjga672uojm","3730","stimuli/41_100_R.jpg","j","response","j","true"
"","","","","","html-keyboard-response","64","2.0.0","128012","pjga672uojm","null","<p style=""border: 5px solid green;"">Correct!</p>","null","","",""
"","","","","","html-keyboard-response","65","2.0.0","129025","pjga672uojm","null","<div style=""font-size: 75px;"">+</div>","null","","",""
"","","","","","image-keyboard-response","66","2.0.0","132675","pjga672uojm","3649","stimuli/45_0_R.jpg","j","response","j","true"
"","","","","","html-keyboard-response","67","2.0.0","133203","pjga672uojm","null","<p style=""border: 5px solid green;"">Correct!</p>","null","","",""
"","","","","","html-keyboard-response","68","2.0.0","134204","pjga672uojm","null","<div style=""font-size: 75px;"">+</div>","null","","",""
"","","","","","image-keyboard-response","69","2.0.0","136016","pjga672uojm","1811","stimuli/6_50_R.jpg","f","response","j","false"
"","","","","","html-keyboard-response","70","2.0.0","136519","pjga672uojm","null","<p style=""border: 5px solid red;"">Incorrect.</p>","null","","",""
"","","","","","html-keyboard-response","71","2.0.0","137530","pjga672uojm","null","<div style=""font-size: 75px;"">+</div>","null","","",""
"","","","","","image-keyboard-response","72","2.0.0","140800","pjga672uojm","3268","stimuli/21_50.jpg","j","response","f","false"
"","","","","","html-keyboard-response","73","2.0.0","141307","pjga672uojm","null","<p style=""border: 5px solid red;"">Incorrect.</p>","null","","",""
"","","","","","html-keyboard-response","74","2.0.0","142319","pjga672uojm","null","<div style=""font-size: 75px;"">+</div>","null","","",""
"","","","","","image-keyboard-response","75","2.0.0","148747","pjga672uojm","6426","stimuli/4_100_R.jpg","f","response","j","false"
"","","","","","html-keyboard-response","76","2.0.0","149251","pjga672uojm","null","<p style=""border: 5px solid red;"">Incorrect.</p>","null","","",""
"","","","","","html-keyboard-response","77","2.0.0","150261","pjga672uojm","null","<div style=""font-size: 75px;"">+</div>","null","","",""
"","","","","","image-keyboard-response","78","2.0.0","153108","pjga672uojm","2844","stimuli/14_100_R.jpg","j","response","j","true"
"","","","","","html-keyboard-response","79","2.0.0","153612","pjga672uojm","null","<p style=""border: 5px solid green;"">Correct!</p>","null","","",""
"","","","","","html-keyboard-response","80","2.0.0","154622","pjga672uojm","null","<div style=""font-size: 75px;"">+</div>","null","","",""
"","","","","","image-keyboard-response","81","2.0.0","157151","pjga672uojm","2528","stimuli/22_0_R.jpg","j","response","j","true"
"","","","","","html-keyboard-response","82","2.0.0","157657","pjga672uojm","null","<p style=""border: 5px solid green;"">Correct!</p>","null","","",""
"","","","","","html-keyboard-response","83","2.0.0","158659","pjga672uojm","null","<div style=""font-size: 75px;"">+</div>","null","","",""
"","","","","","image-keyboard-response","84","2.0.0","162835","pjga672uojm","4169","stimuli/10_150.jpg","f","response","f","true"
"","","","","","html-keyboard-response","85","2.0.0","163347","pjga672uojm","null","<p style=""border: 5px solid green;"">Correct!</p>","null","","",""
"","","","","","html-keyboard-response","86","2.0.0","164354","pjga672uojm","null","<div style=""font-size: 75px;"">+</div>","null","","",""
"","","","","","image-keyboard-response","87","2.0.0","165211","pjga672uojm","856","stimuli/37_0_R.jpg","f","response","j","false"
"","","","","","html-keyboard-response","88","2.0.0","165719","pjga672uojm","null","<p style=""border: 5px solid red;"">Incorrect.</p>","null","","",""
"","","","","","html-keyboard-response","89","2.0.0","166721","pjga672uojm","null","<div style=""font-size: 75px;"">+</div>","null","","",""
"","","","","","image-keyboard-response","90","2.0.0","170405","pjga672uojm","3683","stimuli/43_100.jpg","f","response","f","true"
"","","","","","html-keyboard-response","91","2.0.0","170916","pjga672uojm","null","<p style=""border: 5px solid green;"">Correct!</p>","null","","",""
"","","","","","html-keyboard-response","92","2.0.0","171920","pjga672uojm","null","<div style=""font-size: 75px;"">+</div>","null","","",""
"","","","","","image-keyboard-response","93","2.0.0","176587","pjga672uojm","4665","stimuli/14_150_R.jpg","j","response","j","true"
"","","","","","html-keyboard-response","94","2.0.0","177088","pjga672uojm","null","<p style=""border: 5px solid green;"">Correct!</p>","null","","",""
"","","","","","html-keyboard-response","95","2.0.0","178091","pjga672uojm","null","<div style=""font-size: 75px;"">+</div>","null","","",""
"","","","","","image-keyboard-response","96","2.0.0","181115","pjga672uojm","3023","stimuli/44_150_R.jpg","j","response","j","true"
"","","","","","html-keyboard-response","97","2.0.0","181621","pjga672uojm","null","<p style=""border: 5px solid green;"">Correct!</p>","null","","",""
"","","","","","html-keyboard-response","98","2.0.0","182624","pjga672uojm","null","<div style=""font-size: 75px;"">+</div>","null","","",""
"","","","","","image-keyboard-response","99","2.0.0","186026","pjga672uojm","3401","stimuli/7_50_R.jpg","j","response","j","true"
"","","","","","html-keyboard-response","100","2.0.0","186533","pjga672uojm","null","<p style=""border: 5px solid green;"">Correct!</p>","null","","",""
"","","","","","html-keyboard-response","101","2.0.0","187538","pjga672uojm","null","<div style=""font-size: 75px;"">+</div>","null","","",""
"","","","","","image-keyboard-response","102","2.0.0","189477","pjga672uojm","1937","stimuli/27_150_R.jpg","j","response","j","true"
"","","","","","html-keyboard-response","103","2.0.0","189983","pjga672uojm","null","<p style=""border: 5px solid green;"">Correct!</p>","null","","",""
"","","","","","html-keyboard-response","104","2.0.0","190987","pjga672uojm","null","<div style=""font-size: 75px;"">+</div>","null","","",""
"","","","","","image-keyboard-response","105","2.0.0","193241","pjga672uojm","2252","stimuli/16_150.jpg","j","response","f","false"
"","","","","","html-keyboard-response","106","2.0.0","193750","pjga672uojm","null","<p style=""border: 5px solid red;"">Incorrect.</p>","null","","",""
"","","","","","html-keyboard-response","107","2.0.0","194758","pjga672uojm","null","<div style=""font-size: 75px;"">+</div>","null","","",""
"","","","","","image-keyboard-response","108","2.0.0","198027","pjga672uojm","3267","stimuli/42_150.jpg","f","response","f","true"
"","","","","","html-keyboard-response","109","2.0.0","198532","pjga672uojm","null","<p style=""border: 5px solid green;"">Correct!</p>","null","","",""
"","","","","","html-keyboard-response","110","2.0.0","199541","pjga672uojm","null","<div style=""font-size: 75px;"">+</div>","null","","",""
"","","","","","image-keyboard-response","111","2.0.0","201168","pjga672uojm","1625","stimuli/30_50.jpg","j","response","f","false"
"","","","","","html-keyboard-response","112","2.0.0","201683","pjga672uojm","null","<p style=""border: 5px solid red;"">Incorrect.</p>","null","","",""
"","","","","","html-keyboard-response","113","2.0.0","202687","pjga672uojm","null","<div style=""font-size: 75px;"">+</div>","null","","",""
"","","","","","image-keyboard-response","114","2.0.0","203564","pjga672uojm","876","stimuli/29_0.jpg","f","response","f","true"
"","","","","","html-keyboard-response","115","2.0.0","204071","pjga672uojm","null","<p style=""border: 5px solid green;"">Correct!</p>","null","","",""
"","","","","","html-keyboard-response","116","2.0.0","205079","pjga672uojm","null","<div style=""font-size: 75px;"">+</div>","null","","",""
"","","","","","image-keyboard-response","117","2.0.0","208662","pjga672uojm","3581","stimuli/10_100_R.jpg","j","response","j","true"
"","","","","","html-keyboard-response","118","2.0.0","209173","pjga672uojm","null","<p style=""border: 5px solid green;"">Correct!</p>","null","","",""
"","","","","","html-keyboard-response","119","2.0.0","210182","pjga672uojm","null","<div style=""font-size: 75px;"">+</div>","null","","",""
"","","","","","image-keyboard-response","120","2.0.0","212739","pjga672uojm","2556","stimuli/13_0_R.jpg","j","response","j","true"
"","","","","","html-keyboard-response","121","2.0.0","213248","pjga672uojm","null","<p style=""border: 5px solid green;"">Correct!</p>","null","","",""
"","","","","","html-keyboard-response","122","2.0.0","214255","pjga672uojm","null","<div style=""font-size: 75px;"">+</div>","null","","",""
"","","","","","image-keyboard-response","123","2.0.0","215861","pjga672uojm","1596","stimuli/15_50_R.jpg","j","response","j","true"
"","","","","","html-keyboard-response","124","2.0.0","216375","pjga672uojm","null","<p style=""border: 5px solid green;"">Correct!</p>","null","","",""
"","","","","","html-keyboard-response","125","2.0.0","217380","pjga672uojm","null","<div style=""font-size: 75px;"">+</div>","null","","",""
"","","","","","image-keyboard-response","126","2.0.0","220510","pjga672uojm","3128","stimuli/2_150_R.jpg","f","response","j","false"
"","","","","","html-keyboard-response","127","2.0.0","221015","pjga672uojm","null","<p style=""border: 5px solid red;"">Incorrect.</p>","null","","",""
"","","","","","html-keyboard-response","128","2.0.0","222027","pjga672uojm","null","<div style=""font-size: 75px;"">+</div>","null","","",""
"","","","","","image-keyboard-response","129","2.0.0","225921","pjga672uojm","3893","stimuli/45_100.jpg","j","response","f","false"
"","","","","","html-keyboard-response","130","2.0.0","226429","pjga672uojm","null","<p style=""border: 5px solid red;"">Incorrect.</p>","null","","",""
"","","","","","html-keyboard-response","131","2.0.0","227432","pjga672uojm","null","<div style=""font-size: 75px;"">+</div>","null","","",""
"","","","","","image-keyboard-response","132","2.0.0","231433","pjga672uojm","3999","stimuli/17_150_R.jpg","f","response","j","false"
"","","","","","html-keyboard-response","133","2.0.0","231937","pjga672uojm","null","<p style=""border: 5px solid red;"">Incorrect.</p>","null","","",""
"","","","","","html-keyboard-response","134","2.0.0","232945","pjga672uojm","null","<div style=""font-size: 75px;"">+</div>","null","","",""
"","","","","","image-keyboard-response","135","2.0.0","236993","pjga672uojm","4046","stimuli/4_100.jpg","j","response","f","false"
"","","","","","html-keyboard-response","136","2.0.0","237505","pjga672uojm","null","<p style=""border: 5px solid red;"">Incorrect.</p>","null","","",""
"","","","","","html-keyboard-response","137","2.0.0","238511","pjga672uojm","null","<div style=""font-size: 75px;"">+</div>","null","","",""
"","","","","","image-keyboard-response","138","2.0.0","246682","pjga672uojm","8170","stimuli/30_150.jpg","j","response","f","false"
"","","","","","html-keyboard-response","139","2.0.0","247191","pjga672uojm","null","<p style=""border: 5px solid red;"">Incorrect.</p>","null","","",""
"","","","","","html-keyboard-response","140","2.0.0","248206","pjga672uojm","null","<div style=""font-size: 75px;"">+</div>","null","","",""
"","","","","","image-keyboard-response","141","2.0.0","250731","pjga672uojm","2524","stimuli/42_0_R.jpg","j","response","j","true"
"","","","","","html-keyboard-response","142","2.0.0","251233","pjga672uojm","null","<p style=""border: 5px solid green;"">Correct!</p>","null","","",""
"","","","","","html-keyboard-response","143","2.0.0","252236","pjga672uojm","null","<div style=""font-size: 75px;"">+</div>","null","","",""
"","","","","","image-keyboard-response","144","2.0.0","253656","pjga672uojm","1418","stimuli/16_0_R.jpg","j","response","j","true"
"","","","","","html-keyboard-response","145","2.0.0","254165","pjga672uojm","null","<p style=""border: 5px solid green;"">Correct!</p>","null","","",""
"","","","","","html-keyboard-response","146","2.0.0","255170","pjga672uojm","null","<div style=""font-size: 75px;"">+</div>","null","","",""
"","","","","","image-keyboard-response","147","2.0.0","256183","pjga672uojm","1012","stimuli/22_0.jpg","f","response","f","true"
"","","","","","html-keyboard-response","148","2.0.0","256685","pjga672uojm","null","<p style=""border: 5px solid green;"">Correct!</p>","null","","",""
"","","","","","html-keyboard-response","149","2.0.0","286687","pjga672uojm","null","<p> Take a break! Experiment continues in 30 seconds . </p>","null","","",""
"","","","","","html-keyboard-response","150","2.0.0","287689","pjga672uojm","null","<div style=""font-size: 75px;"">+</div>","null","","",""
"","","","","","image-keyboard-response","151","2.0.0","309076","pjga672uojm","21387","stimuli/25_0.jpg","f","response","f","true"
"","","","","","html-keyboard-response","152","2.0.0","309584","pjga672uojm","null","<p style=""border: 5px solid green;"">Correct!</p>","null","","",""
"","","","","","html-keyboard-response","153","2.0.0","310585","pjga672uojm","null","<div style=""font-size: 75px;"">+</div>","null","","",""
"","","","","","image-keyboard-response","154","2.0.0","311453","pjga672uojm","866","stimuli/36_0.jpg","f","response","f","true"
"","","","","","html-keyboard-response","155","2.0.0","311969","pjga672uojm","null","<p style=""border: 5px solid green;"">Correct!</p>","null","","",""
"","","","","","html-keyboard-response","156","2.0.0","312976","pjga672uojm","null","<div style=""font-size: 75px;"">+</div>","null","","",""
"","","","","","image-keyboard-response","157","2.0.0","313998","pjga672uojm","1021","stimuli/23_100_R.jpg","j","response","j","true"
"","","","","","html-keyboard-response","158","2.0.0","314509","pjga672uojm","null","<p style=""border: 5px solid green;"">Correct!</p>","null","","",""
"","","","","","html-keyboard-response","159","2.0.0","315518","pjga672uojm","null","<div style=""font-size: 75px;"">+</div>","null","","",""
"","","","","","image-keyboard-response","160","2.0.0","316770","pjga672uojm","1250","stimuli/38_0_R.jpg","j","response","j","true"
"","","","","","html-keyboard-response","161","2.0.0","317288","pjga672uojm","null","<p style=""border: 5px solid green;"">Correct!</p>","null","","",""
"","","","","","html-keyboard-response","162","2.0.0","318293","pjga672uojm","null","<div style=""font-size: 75px;"">+</div>","null","","",""
"","","","","","image-keyboard-response","163","2.0.0","319707","pjga672uojm","1412","stimuli/7_150.jpg","j","response","f","false"
"","","","","","html-keyboard-response","164","2.0.0","320213","pjga672uojm","null","<p style=""border: 5px solid red;"">Incorrect.</p>","null","","",""
"","","","","","html-keyboard-response","165","2.0.0","321215","pjga672uojm","null","<div style=""font-size: 75px;"">+</div>","null","","",""
"","","","","","image-keyboard-response","166","2.0.0","326059","pjga672uojm","4842","stimuli/32_100_R.jpg","f","response","j","false"
"","","","","","html-keyboard-response","167","2.0.0","326566","pjga672uojm","null","<p style=""border: 5px solid red;"">Incorrect.</p>","null","","",""
"","","","","","html-keyboard-response","168","2.0.0","327575","pjga672uojm","null","<div style=""font-size: 75px;"">+</div>","null","","",""
"","","","","","image-keyboard-response","169","2.0.0","330405","pjga672uojm","2829","stimuli/38_100.jpg","j","response","f","false"
"","","","","","html-keyboard-response","170","2.0.0","330920","pjga672uojm","null","<p style=""border: 5px solid red;"">Incorrect.</p>","null","","",""
"","","","","","html-keyboard-response","171","2.0.0","331931","pjga672uojm","null","<div style=""font-size: 75px;"">+</div>","null","","",""
"","","","","","image-keyboard-response","172","2.0.0","335028","pjga672uojm","3096","stimuli/44_50_R.jpg","j","response","j","true"
"","","","","","html-keyboard-response","173","2.0.0","335530","pjga672uojm","null","<p style=""border: 5px solid green;"">Correct!</p>","null","","",""
"","","","","","html-keyboard-response","174","2.0.0","336541","pjga672uojm","null","<div style=""font-size: 75px;"">+</div>","null","","",""
"","","","","","image-keyboard-response","175","2.0.0","339915","pjga672uojm","3371","stimuli/39_100.jpg","j","response","f","false"
"","","","","","html-keyboard-response","176","2.0.0","340424","pjga672uojm","null","<p style=""border: 5px solid red;"">Incorrect.</p>","null","","",""
"","","","","","html-keyboard-response","177","2.0.0","341431","pjga672uojm","null","<div style=""font-size: 75px;"">+</div>","null","","",""
"","","","","","image-keyboard-response","178","2.0.0","343243","pjga672uojm","1811","stimuli/42_150_R.jpg","f","response","j","false"
"","","","","","html-keyboard-response","179","2.0.0","343752","pjga672uojm","null","<p style=""border: 5px solid red;"">Incorrect.</p>","null","","",""
"","","","","","html-keyboard-response","180","2.0.0","344761","pjga672uojm","null","<div style=""font-size: 75px;"">+</div>","null","","",""
"","","","","","image-keyboard-response","181","2.0.0","347361","pjga672uojm","2604","stimuli/17_100.jpg","j","response","f","false"
"","","","","","html-keyboard-response","182","2.0.0","347864","pjga672uojm","null","<p style=""border: 5px solid red;"">Incorrect.</p>","null","","",""
"","","","","","html-keyboard-response","183","2.0.0","348881","pjga672uojm","null","<div style=""font-size: 75px;"">+</div>","null","","",""
"","","","","","image-keyboard-response","184","2.0.0","353638","pjga672uojm","4756","stimuli/35_150_R.jpg","f","response","j","false"
"","","","","","html-keyboard-response","185","2.0.0","354145","pjga672uojm","null","<p style=""border: 5px solid red;"">Incorrect.</p>","null","","",""
"","","","","","html-keyboard-response","186","2.0.0","355149","pjga672uojm","null","<div style=""font-size: 75px;"">+</div>","null","","",""
"","","","","","image-keyboard-response","187","2.0.0","356468","pjga672uojm","1317","stimuli/26_100_R.jpg","f","response","j","false"
"","","","","","html-keyboard-response","188","2.0.0","356971","pjga672uojm","null","<p style=""border: 5px solid red;"">Incorrect.</p>","null","","",""
"","","","","","html-keyboard-response","189","2.0.0","357980","pjga672uojm","null","<div style=""font-size: 75px;"">+</div>","null","","",""
"","","","","","image-keyboard-response","190","2.0.0","360915","pjga672uojm","2933","stimuli/23_100.jpg","j","response","f","false"
"","","","","","html-keyboard-response","191","2.0.0","361421","pjga672uojm","null","<p style=""border: 5px solid red;"">Incorrect.</p>","null","","",""
"","","","","","html-keyboard-response","192","2.0.0","362427","pjga672uojm","null","<div style=""font-size: 75px;"">+</div>","null","","",""
"","","","","","image-keyboard-response","193","2.0.0","367570","pjga672uojm","5142","stimuli/43_50_R.jpg","f","response","j","false"
"","","","","","html-keyboard-response","194","2.0.0","368079","pjga672uojm","null","<p style=""border: 5px solid red;"">Incorrect.</p>","null","","",""
"","","","","","html-keyboard-response","195","2.0.0","369082","pjga672uojm","null","<div style=""font-size: 75px;"">+</div>","null","","",""
"","","","","","image-keyboard-response","196","2.0.0","369895","pjga672uojm","812","stimuli/9_0.jpg","f","response","f","true"
"","","","","","html-keyboard-response","197","2.0.0","370406","pjga672uojm","null","<p style=""border: 5px solid green;"">Correct!</p>","null","","",""
"","","","","","html-keyboard-response","198","2.0.0","371415","pjga672uojm","null","<div style=""font-size: 75px;"">+</div>","null","","",""
"","","","","","image-keyboard-response","199","2.0.0","375662","pjga672uojm","4246","stimuli/25_0_R.jpg","f","response","j","false"
"","","","","","html-keyboard-response","200","2.0.0","376167","pjga672uojm","null","<p style=""border: 5px solid red;"">Incorrect.</p>","null","","",""
"","","","","","html-keyboard-response","201","2.0.0","377171","pjga672uojm","null","<div style=""font-size: 75px;"">+</div>","null","","",""
"","","","","","image-keyboard-response","202","2.0.0","380101","pjga672uojm","2929","stimuli/28_0_R.jpg","j","response","j","true"
"","","","","","html-keyboard-response","203","2.0.0","380607","pjga672uojm","null","<p style=""border: 5px solid green;"">Correct!</p>","null","","",""
"","","","","","html-keyboard-response","204","2.0.0","381619","pjga672uojm","null","<div style=""font-size: 75px;"">+</div>","null","","",""
"","","","","","image-keyboard-response","205","2.0.0","383744","pjga672uojm","2122","stimuli/47_50_R.jpg","j","response","j","true"
"","","","","","html-keyboard-response","206","2.0.0","384251","pjga672uojm","null","<p style=""border: 5px solid green;"">Correct!</p>","null","","",""
"","","","","","html-keyboard-response","207","2.0.0","385259","pjga672uojm","null","<div style=""font-size: 75px;"">+</div>","null","","",""
"","","","","","image-keyboard-response","208","2.0.0","386339","pjga672uojm","1079","stimuli/28_50_R.jpg","j","response","j","true"
"","","","","","html-keyboard-response","209","2.0.0","386845","pjga672uojm","null","<p style=""border: 5px solid green;"">Correct!</p>","null","","",""
"","","","","","html-keyboard-response","210","2.0.0","387850","pjga672uojm","null","<div style=""font-size: 75px;"">+</div>","null","","",""
"","","","","","image-keyboard-response","211","2.0.0","389979","pjga672uojm","2128","stimuli/45_50.jpg","f","response","f","true"
"","","","","","html-keyboard-response","212","2.0.0","390486","pjga672uojm","null","<p style=""border: 5px solid green;"">Correct!</p>","null","","",""
"","","","","","html-keyboard-response","213","2.0.0","391488","pjga672uojm","null","<div style=""font-size: 75px;"">+</div>","null","","",""
"","","","","","image-keyboard-response","214","2.0.0","393590","pjga672uojm","2100","stimuli/16_0.jpg","f","response","f","true"
"","","","","","html-keyboard-response","215","2.0.0","394097","pjga672uojm","null","<p style=""border: 5px solid green;"">Correct!</p>","null","","",""
"","","","","","html-keyboard-response","216","2.0.0","395104","pjga672uojm","null","<div style=""font-size: 75px;"">+</div>","null","","",""
"","","","","","image-keyboard-response","217","2.0.0","396266","pjga672uojm","1161","stimuli/44_0.jpg","f","response","f","true"
"","","","","","html-keyboard-response","218","2.0.0","396777","pjga672uojm","null","<p style=""border: 5px solid green;"">Correct!</p>","null","","",""
"","","","","","html-keyboard-response","219","2.0.0","397784","pjga672uojm","null","<div style=""font-size: 75px;"">+</div>","null","","",""
"","","","","","image-keyboard-response","220","2.0.0","398581","pjga672uojm","794","stimuli/40_150_R.jpg","j","response","j","true"
"","","","","","html-keyboard-response","221","2.0.0","399082","pjga672uojm","null","<p style=""border: 5px solid green;"">Correct!</p>","null","","",""
"","","","","","html-keyboard-response","222","2.0.0","400094","pjga672uojm","null","<div style=""font-size: 75px;"">+</div>","null","","",""
"","","","","","image-keyboard-response","223","2.0.0","401843","pjga672uojm","1747","stimuli/39_150_R.jpg","j","response","j","true"
"","","","","","html-keyboard-response","224","2.0.0","402359","pjga672uojm","null","<p style=""border: 5px solid green;"">Correct!</p>","null","","",""
"","","","","","html-keyboard-response","225","2.0.0","403370","pjga672uojm","null","<div style=""font-size: 75px;"">+</div>","null","","",""
"","","","","","image-keyboard-response","226","2.0.0","404103","pjga672uojm","725","stimuli/1_0.jpg","f","response","f","true"
"","","","","","html-keyboard-response","227","2.0.0","404610","pjga672uojm","null","<p style=""border: 5px solid green;"">Correct!</p>","null","","",""
"","","","","","html-keyboard-response","228","2.0.0","405627","pjga672uojm","null","<div style=""font-size: 75px;"">+</div>","null","","",""
"","","","","","image-keyboard-response","229","2.0.0","406660","pjga672uojm","1031","stimuli/31_150.jpg","j","response","f","false"
"","","","","","html-keyboard-response","230","2.0.0","407175","pjga672uojm","null","<p style=""border: 5px solid red;"">Incorrect.</p>","null","","",""
"","","","","","html-keyboard-response","231","2.0.0","408195","pjga672uojm","null","<div style=""font-size: 75px;"">+</div>","null","","",""
"","","","","","image-keyboard-response","232","2.0.0","408889","pjga672uojm","692","stimuli/9_100.jpg","f","response","f","true"
"","","","","","html-keyboard-response","233","2.0.0","409396","pjga672uojm","null","<p style=""border: 5px solid green;"">Correct!</p>","null","","",""
"","","","","","html-keyboard-response","234","2.0.0","410401","pjga672uojm","null","<div style=""font-size: 75px;"">+</div>","null","","",""
"","","","","","image-keyboard-response","235","2.0.0","412277","pjga672uojm","1874","stimuli/17_0_R.jpg","f","response","j","false"
"","","","","","html-keyboard-response","236","2.0.0","412784","pjga672uojm","null","<p style=""border: 5px solid red;"">Incorrect.</p>","null","","",""
"","","","","","html-keyboard-response","237","2.0.0","413790","pjga672uojm","null","<div style=""font-size: 75px;"">+</div>","null","","",""
"","","","","","image-keyboard-response","238","2.0.0","414455","pjga672uojm","663","stimuli/2_0.jpg","f","response","f","true"
"","","","","","html-keyboard-response","239","2.0.0","414967","pjga672uojm","null","<p style=""border: 5px solid green;"">Correct!</p>","null","","",""
"","","","","","html-keyboard-response","240","2.0.0","415976","pjga672uojm","null","<div style=""font-size: 75px;"">+</div>","null","","",""
"","","","","","image-keyboard-response","241","2.0.0","416745","pjga672uojm","768","stimuli/13_50_R.jpg","j","response","j","true"
"","","","","","html-keyboard-response","242","2.0.0","417250","pjga672uojm","null","<p style=""border: 5px solid green;"">Correct!</p>","null","","",""
"","","","","","html-keyboard-response","243","2.0.0","418252","pjga672uojm","null","<div style=""font-size: 75px;"">+</div>","null","","",""
"","","","","","image-keyboard-response","244","2.0.0","419195","pjga672uojm","942","stimuli/1_150.jpg","j","response","f","false"
"","","","","","html-keyboard-response","245","2.0.0","419703","pjga672uojm","null","<p style=""border: 5px solid red;"">Incorrect.</p>","null","","",""
"","","","","","html-keyboard-response","246","2.0.0","420704","pjga672uojm","null","<div style=""font-size: 75px;"">+</div>","null","","",""
"","","","","","image-keyboard-response","247","2.0.0","421507","pjga672uojm","801","stimuli/5_150.jpg","f","response","f","true"
"","","","","","html-keyboard-response","248","2.0.0","422011","pjga672uojm","null","<p style=""border: 5px solid green;"">Correct!</p>","null","","",""
"","","","","","html-keyboard-response","249","2.0.0","423024","pjga672uojm","null","<div style=""font-size: 75px;"">+</div>","null","","",""
"","","","","","image-keyboard-response","250","2.0.0","425551","pjga672uojm","2525","stimuli/9_50.jpg","f","response","f","true"
"","","","","","html-keyboard-response","251","2.0.0","426062","pjga672uojm","null","<p style=""border: 5px solid green;"">Correct!</p>","null","","",""
"","","","","","html-keyboard-response","252","2.0.0","427066","pjga672uojm","null","<div style=""font-size: 75px;"">+</div>","null","","",""
"","","","","","image-keyboard-response","253","2.0.0","428335","pjga672uojm","1267","stimuli/43_150.jpg","j","response","f","false"
"","","","","","html-keyboard-response","254","2.0.0","428836","pjga672uojm","null","<p style=""border: 5px solid red;"">Incorrect.</p>","null","","",""
"","","","","","html-keyboard-response","255","2.0.0","429845","pjga672uojm","null","<div style=""font-size: 75px;"">+</div>","null","","",""
"","","","","","image-keyboard-response","256","2.0.0","431604","pjga672uojm","1756","stimuli/1_50.jpg","j","response","f","false"
"","","","","","html-keyboard-response","257","2.0.0","432110","pjga672uojm","null","<p style=""border: 5px solid red;"">Incorrect.</p>","null","","",""
"","","","","","html-keyboard-response","258","2.0.0","433120","pjga672uojm","null","<div style=""font-size: 75px;"">+</div>","null","","",""
"","","","","","image-keyboard-response","259","2.0.0","434236","pjga672uojm","1115","stimuli/8_50.jpg","f","response","f","true"
"","","","","","html-keyboard-response","260","2.0.0","434751","pjga672uojm","null","<p style=""border: 5px solid green;"">Correct!</p>","null","","",""
"","","","","","html-keyboard-response","261","2.0.0","435759","pjga672uojm","null","<div style=""font-size: 75px;"">+</div>","null","","",""
"","","","","","image-keyboard-response","262","2.0.0","436824","pjga672uojm","1064","stimuli/2_50.jpg","f","response","f","true"
"","","","","","html-keyboard-response","263","2.0.0","437337","pjga672uojm","null","<p style=""border: 5px solid green;"">Correct!</p>","null","","",""
"","","","","","html-keyboard-response","264","2.0.0","438346","pjga672uojm","null","<div style=""font-size: 75px;"">+</div>","null","","",""
"","","","","","image-keyboard-response","265","2.0.0","442763","pjga672uojm","4416","stimuli/47_100_R.jpg","f","response","j","false"
"","","","","","html-keyboard-response","266","2.0.0","443266","pjga672uojm","null","<p style=""border: 5px solid red;"">Incorrect.</p>","null","","",""
"","","","","","html-keyboard-response","267","2.0.0","444275","pjga672uojm","null","<div style=""font-size: 75px;"">+</div>","null","","",""
"","","","","","image-keyboard-response","268","2.0.0","446907","pjga672uojm","2631","stimuli/24_150_R.jpg","j","response","j","true"
"","","","","","html-keyboard-response","269","2.0.0","447409","pjga672uojm","null","<p style=""border: 5px solid green;"">Correct!</p>","null","","",""
"","","","","","html-keyboard-response","270","2.0.0","448417","pjga672uojm","null","<div style=""font-size: 75px;"">+</div>","null","","",""
"","","","","","image-keyboard-response","271","2.0.0","449844","pjga672uojm","1425","stimuli/7_100.jpg","f","response","f","true"
"","","","","","html-keyboard-response","272","2.0.0","450348","pjga672uojm","null","<p style=""border: 5px solid green;"">Correct!</p>","null","","",""
"","","","","","html-keyboard-response","273","2.0.0","451357","pjga672uojm","null","<div style=""font-size: 75px;"">+</div>","null","","",""
"","","","","","image-keyboard-response","274","2.0.0","453124","pjga672uojm","1765","stimuli/6_0_R.jpg","j","response","j","true"
"","","","","","html-keyboard-response","275","2.0.0","453629","pjga672uojm","null","<p style=""border: 5px solid green;"">Correct!</p>","null","","",""
"","","","","","html-keyboard-response","276","2.0.0","454644","pjga672uojm","null","<div style=""font-size: 75px;"">+</div>","null","","",""
"","","","","","image-keyboard-response","277","2.0.0","455414","pjga672uojm","768","stimuli/2_100.jpg","f","response","f","true"
"","","","","","html-keyboard-response","278","2.0.0","455918","pjga672uojm","null","<p style=""border: 5px solid green;"">Correct!</p>","null","","",""
"","","","","","html-keyboard-response","279","2.0.0","456925","pjga672uojm","null","<div style=""font-size: 75px;"">+</div>","null","","",""
"","","","","","image-keyboard-response","280","2.0.0","457598","pjga672uojm","672","stimuli/34_50_R.jpg","j","response","j","true"
"","","","","","html-keyboard-response","281","2.0.0","458106","pjga672uojm","null","<p style=""border: 5px solid green;"">Correct!</p>","null","","",""
"","","","","","html-keyboard-response","282","2.0.0","459111","pjga672uojm","null","<div style=""font-size: 75px;"">+</div>","null","","",""
"","","","","","image-keyboard-response","283","2.0.0","459524","pjga672uojm","412","stimuli/3_100_R.jpg","j","response","j","true"
"","","","","","html-keyboard-response","284","2.0.0","460029","pjga672uojm","null","<p style=""border: 5px solid green;"">Correct!</p>","null","","",""
"","","","","","html-keyboard-response","285","2.0.0","461040","pjga672uojm","null","<div style=""font-size: 75px;"">+</div>","null","","",""
"","","","","","image-keyboard-response","286","2.0.0","461512","pjga672uojm","469","stimuli/46_150.jpg","f","response","f","true"
"","","","","","html-keyboard-response","287","2.0.0","462015","pjga672uojm","null","<p style=""border: 5px solid green;"">Correct!</p>","null","","",""
"","","","","","html-keyboard-response","288","2.0.0","463017","pjga672uojm","null","<div style=""font-size: 75px;"">+</div>","null","","",""
"","","","","","image-keyboard-response","289","2.0.0","463291","pjga672uojm","273","stimuli/31_50.jpg","f","response","f","true"
"","","","","","html-keyboard-response","290","2.0.0","463797","pjga672uojm","null","<p style=""border: 5px solid green;"">Correct!</p>","null","","",""
"","","","","","html-keyboard-response","291","2.0.0","464811","pjga672uojm","null","<div style=""font-size: 75px;"">+</div>","null","","",""
"","","","","","image-keyboard-response","292","2.0.0","465025","pjga672uojm","213","stimuli/35_0_R.jpg","f","response","j","false"
"","","","","","html-keyboard-response","293","2.0.0","465538","pjga672uojm","null","<p style=""border: 5px solid red;"">Incorrect.</p>","null","","",""
"","","","","","html-keyboard-response","294","2.0.0","466701","pjga672uojm","1162","<p>Thank you for participating!</p><p>Please press space to answer our survey.</p>"," ","","",""
"","","","","","survey-html-form","295","null","571178","pjga672uojm","104480","","{""response_1"":""Moderately clear and lively"",""response_2"":""Moderately clear and lively"",""response_3"":""Moderately clear and lively"",""response_4"":""Clear and lively"",""response_5"":""Moderately clear and lively"",""response_6"":""Dim and vague; flat"",""response_7"":""Clear and lively"",""response_8"":""Dim and vague; flat"",""response_9"":""Moderately clear and lively"",""response_10"":""Clear and lively"",""response_11"":""Moderately clear and lively"",""response_12"":""Clear and lively"",""response_13"":""Moderately clear and lively"",""response_14"":""Dim and vague; flat"",""response_15"":""Dim and vague; flat"",""response_16"":""Moderately clear and lively""}","","",""
"","","","","","survey-html-form","296","null","600184","pjga672uojm","28999","","{""age"":""21"",""gender"":""female"",""education"":""some-college"",""handedness"":""right"",""vision"":""corrected"",""technical_difficulties"":""no"",""knowledge_check"":""mental imagery cuz my group made the experiment LOL ""}","","",""
