"success","timeout","failed_images","failed_audio","failed_video","trial_type","trial_index","plugin_version","time_elapsed","random_id","rt","stimulus","response","task","correct_response","correct"
"true","false","[]","[]","[]","preload","0","2.0.0","6398","pkgr5vfo76d","","","","","",""
"true","","","","","fullscreen","1","2.0.0","11061","pkgr5vfo76d","3657","","","","",""
"","","","","","html-keyboard-response","2","2.0.0","12682","pkgr5vfo76d","1620","Welcome to the experiment. Press any key to begin."," ","","",""
"","","","","","survey-text","3","2.0.0","48918","pkgr5vfo76d","36234","","{""participant_id"":""porcupine""}","","",""
"","","","","","html-keyboard-response","4","2.0.0","59033","pkgr5vfo76d","10114","
        <p>Welcome to the experiment.</p>
        <p>In this task, you will see pairs of images.</p>
        <p>Your job is to determine whether the image on the right is a rotated version of the image on the left.</p>
        <p>Press the <strong>F</strong> key if the images are the same.</p>
        <p>Press the <strong>J</strong> key if the images are different.</p>
        <p>Press any key to begin.</p>
    "," ","","",""
"","","","","","html-keyboard-response","5","2.0.0","60035","pkgr5vfo76d","null","<div style=""font-size: 75px;"">+</div>","null","","",""
"","","","","","image-keyboard-response","6","2.0.0","63405","pkgr5vfo76d","3366","stimuli/26_100_R.jpg","j","response","j","true"
"","","","","","html-keyboard-response","7","2.0.0","63906","pkgr5vfo76d","null","<p style=""border: 5px solid green;"">Correct!</p>","null","","",""
"","","","","","html-keyboard-response","8","2.0.0","64909","pkgr5vfo76d","null","<div style=""font-size: 75px;"">+</div>","null","","",""
"","","","","","image-keyboard-response","9","2.0.0","68729","pkgr5vfo76d","3819","stimuli/35_50.jpg","j","response","f","false"
"","","","","","html-keyboard-response","10","2.0.0","69231","pkgr5vfo76d","null","<p style=""border: 5px solid red;"">Incorrect.</p>","null","","",""
"","","","","","html-keyboard-response","11","2.0.0","70234","pkgr5vfo76d","null","<div style=""font-size: 75px;"">+</div>","null","","",""
"","","","","","image-keyboard-response","12","2.0.0","74072","pkgr5vfo76d","3837","stimuli/18_150.jpg","f","response","f","true"
"","","","","","html-keyboard-response","13","2.0.0","74573","pkgr5vfo76d","null","<p style=""border: 5px solid green;"">Correct!</p>","null","","",""
"","","","","","html-keyboard-response","14","2.0.0","75575","pkgr5vfo76d","null","<div style=""font-size: 75px;"">+</div>","null","","",""
"","","","","","image-keyboard-response","15","2.0.0","79296","pkgr5vfo76d","3720","stimuli/24_150_R.jpg","f","response","j","false"
"","","","","","html-keyboard-response","16","2.0.0","79798","pkgr5vfo76d","null","<p style=""border: 5px solid red;"">Incorrect.</p>","null","","",""
"","","","","","html-keyboard-response","17","2.0.0","80801","pkgr5vfo76d","null","<div style=""font-size: 75px;"">+</div>","null","","",""
"","","","","","image-keyboard-response","18","2.0.0","85216","pkgr5vfo76d","4414","stimuli/22_150_R.jpg","j","response","j","true"
"","","","","","html-keyboard-response","19","2.0.0","85718","pkgr5vfo76d","null","<p style=""border: 5px solid green;"">Correct!</p>","null","","",""
"","","","","","html-keyboard-response","20","2.0.0","86721","pkgr5vfo76d","null","<div style=""font-size: 75px;"">+</div>","null","","",""
"","","","","","image-keyboard-response","21","2.0.0","89463","pkgr5vfo76d","2740","stimuli/37_0.jpg","f","response","f","true"
"","","","","","html-keyboard-response","22","2.0.0","89968","pkgr5vfo76d","null","<p style=""border: 5px solid green;"">Correct!</p>","null","","",""
"","","","","","html-keyboard-response","23","2.0.0","90971","pkgr5vfo76d","null","<div style=""font-size: 75px;"">+</div>","null","","",""
"","","","","","image-keyboard-response","24","2.0.0","94297","pkgr5vfo76d","3324","stimuli/48_50_R.jpg","j","response","j","true"
"","","","","","html-keyboard-response","25","2.0.0","94798","pkgr5vfo76d","null","<p style=""border: 5px solid green;"">Correct!</p>","null","","",""
"","","","","","html-keyboard-response","26","2.0.0","95801","pkgr5vfo76d","null","<div style=""font-size: 75px;"">+</div>","null","","",""
"","","","","","image-keyboard-response","27","2.0.0","98781","pkgr5vfo76d","2979","stimuli/14_50.jpg","f","response","f","true"
"","","","","","html-keyboard-response","28","2.0.0","99283","pkgr5vfo76d","null","<p style=""border: 5px solid green;"">Correct!</p>","null","","",""
"","","","","","html-keyboard-response","29","2.0.0","100286","pkgr5vfo76d","null","<div style=""font-size: 75px;"">+</div>","null","","",""
"","","","","","image-keyboard-response","30","2.0.0","102187","pkgr5vfo76d","1900","stimuli/43_50_R.jpg","f","response","j","false"
"","","","","","html-keyboard-response","31","2.0.0","102688","pkgr5vfo76d","null","<p style=""border: 5px solid red;"">Incorrect.</p>","null","","",""
"","","","","","html-keyboard-response","32","2.0.0","103690","pkgr5vfo76d","null","<div style=""font-size: 75px;"">+</div>","null","","",""
"","","","","","image-keyboard-response","33","2.0.0","108654","pkgr5vfo76d","4963","stimuli/35_0_R.jpg","j","response","j","true"
"","","","","","html-keyboard-response","34","2.0.0","109156","pkgr5vfo76d","null","<p style=""border: 5px solid green;"">Correct!</p>","null","","",""
"","","","","","html-keyboard-response","35","2.0.0","110159","pkgr5vfo76d","null","<div style=""font-size: 75px;"">+</div>","null","","",""
"","","","","","image-keyboard-response","36","2.0.0","113906","pkgr5vfo76d","3746","stimuli/21_50.jpg","j","response","f","false"
"","","","","","html-keyboard-response","37","2.0.0","114407","pkgr5vfo76d","null","<p style=""border: 5px solid red;"">Incorrect.</p>","null","","",""
"","","","","","html-keyboard-response","38","2.0.0","115410","pkgr5vfo76d","null","<div style=""font-size: 75px;"">+</div>","null","","",""
"","","","","","image-keyboard-response","39","2.0.0","123569","pkgr5vfo76d","8158","stimuli/27_100_R.jpg","f","response","j","false"
"","","","","","html-keyboard-response","40","2.0.0","124071","pkgr5vfo76d","null","<p style=""border: 5px solid red;"">Incorrect.</p>","null","","",""
"","","","","","html-keyboard-response","41","2.0.0","125074","pkgr5vfo76d","null","<div style=""font-size: 75px;"">+</div>","null","","",""
"","","","","","image-keyboard-response","42","2.0.0","127419","pkgr5vfo76d","2344","stimuli/39_150_R.jpg","j","response","j","true"
"","","","","","html-keyboard-response","43","2.0.0","127920","pkgr5vfo76d","null","<p style=""border: 5px solid green;"">Correct!</p>","null","","",""
"","","","","","html-keyboard-response","44","2.0.0","128923","pkgr5vfo76d","null","<div style=""font-size: 75px;"">+</div>","null","","",""
"","","","","","image-keyboard-response","45","2.0.0","134096","pkgr5vfo76d","5172","stimuli/6_0.jpg","f","response","f","true"
"","","","","","html-keyboard-response","46","2.0.0","134598","pkgr5vfo76d","null","<p style=""border: 5px solid green;"">Correct!</p>","null","","",""
"","","","","","html-keyboard-response","47","2.0.0","135600","pkgr5vfo76d","null","<div style=""font-size: 75px;"">+</div>","null","","",""
"","","","","","image-keyboard-response","48","2.0.0","139251","pkgr5vfo76d","3650","stimuli/44_50_R.jpg","j","response","j","true"
"","","","","","html-keyboard-response","49","2.0.0","139752","pkgr5vfo76d","null","<p style=""border: 5px solid green;"">Correct!</p>","null","","",""
"","","","","","html-keyboard-response","50","2.0.0","140753","pkgr5vfo76d","null","<div style=""font-size: 75px;"">+</div>","null","","",""
"","","","","","image-keyboard-response","51","2.0.0","148943","pkgr5vfo76d","8189","stimuli/9_100.jpg","j","response","f","false"
"","","","","","html-keyboard-response","52","2.0.0","149444","pkgr5vfo76d","null","<p style=""border: 5px solid red;"">Incorrect.</p>","null","","",""
"","","","","","html-keyboard-response","53","2.0.0","150446","pkgr5vfo76d","null","<div style=""font-size: 75px;"">+</div>","null","","",""
"","","","","","image-keyboard-response","54","2.0.0","152860","pkgr5vfo76d","2412","stimuli/23_50_R.jpg","f","response","j","false"
"","","","","","html-keyboard-response","55","2.0.0","153361","pkgr5vfo76d","null","<p style=""border: 5px solid red;"">Incorrect.</p>","null","","",""
"","","","","","html-keyboard-response","56","2.0.0","154363","pkgr5vfo76d","null","<div style=""font-size: 75px;"">+</div>","null","","",""
"","","","","","image-keyboard-response","57","2.0.0","157890","pkgr5vfo76d","3525","stimuli/23_100.jpg","f","response","f","true"
"","","","","","html-keyboard-response","58","2.0.0","158392","pkgr5vfo76d","null","<p style=""border: 5px solid green;"">Correct!</p>","null","","",""
"","","","","","html-keyboard-response","59","2.0.0","159394","pkgr5vfo76d","null","<div style=""font-size: 75px;"">+</div>","null","","",""
"","","","","","image-keyboard-response","60","2.0.0","163252","pkgr5vfo76d","3857","stimuli/26_100.jpg","j","response","f","false"
"","","","","","html-keyboard-response","61","2.0.0","163754","pkgr5vfo76d","null","<p style=""border: 5px solid red;"">Incorrect.</p>","null","","",""
"","","","","","html-keyboard-response","62","2.0.0","164756","pkgr5vfo76d","null","<div style=""font-size: 75px;"">+</div>","null","","",""
"","","","","","image-keyboard-response","63","2.0.0","169303","pkgr5vfo76d","4546","stimuli/48_100_R.jpg","f","response","j","false"
"","","","","","html-keyboard-response","64","2.0.0","169805","pkgr5vfo76d","null","<p style=""border: 5px solid red;"">Incorrect.</p>","null","","",""
"","","","","","html-keyboard-response","65","2.0.0","170807","pkgr5vfo76d","null","<div style=""font-size: 75px;"">+</div>","null","","",""
"","","","","","image-keyboard-response","66","2.0.0","172923","pkgr5vfo76d","2115","stimuli/31_150.jpg","j","response","f","false"
"","","","","","html-keyboard-response","67","2.0.0","173425","pkgr5vfo76d","null","<p style=""border: 5px solid red;"">Incorrect.</p>","null","","",""
"","","","","","html-keyboard-response","68","2.0.0","174427","pkgr5vfo76d","null","<div style=""font-size: 75px;"">+</div>","null","","",""
"","","","","","image-keyboard-response","69","2.0.0","176281","pkgr5vfo76d","1853","stimuli/13_150.jpg","f","response","f","true"
"","","","","","html-keyboard-response","70","2.0.0","176783","pkgr5vfo76d","null","<p style=""border: 5px solid green;"">Correct!</p>","null","","",""
"","","","","","html-keyboard-response","71","2.0.0","177786","pkgr5vfo76d","null","<div style=""font-size: 75px;"">+</div>","null","","",""
"","","","","","image-keyboard-response","72","2.0.0","179825","pkgr5vfo76d","2038","stimuli/2_0.jpg","f","response","f","true"
"","","","","","html-keyboard-response","73","2.0.0","180327","pkgr5vfo76d","null","<p style=""border: 5px solid green;"">Correct!</p>","null","","",""
"","","","","","html-keyboard-response","74","2.0.0","181329","pkgr5vfo76d","null","<div style=""font-size: 75px;"">+</div>","null","","",""
"","","","","","image-keyboard-response","75","2.0.0","184422","pkgr5vfo76d","3092","stimuli/37_100_R.jpg","j","response","j","true"
"","","","","","html-keyboard-response","76","2.0.0","184923","pkgr5vfo76d","null","<p style=""border: 5px solid green;"">Correct!</p>","null","","",""
"","","","","","html-keyboard-response","77","2.0.0","185925","pkgr5vfo76d","null","<div style=""font-size: 75px;"">+</div>","null","","",""
"","","","","","image-keyboard-response","78","2.0.0","191029","pkgr5vfo76d","5103","stimuli/48_100.jpg","f","response","f","true"
"","","","","","html-keyboard-response","79","2.0.0","191531","pkgr5vfo76d","null","<p style=""border: 5px solid green;"">Correct!</p>","null","","",""
"","","","","","html-keyboard-response","80","2.0.0","192534","pkgr5vfo76d","null","<div style=""font-size: 75px;"">+</div>","null","","",""
"","","","","","image-keyboard-response","81","2.0.0","197397","pkgr5vfo76d","4863","stimuli/46_100.jpg","f","response","f","true"
"","","","","","html-keyboard-response","82","2.0.0","197899","pkgr5vfo76d","null","<p style=""border: 5px solid green;"">Correct!</p>","null","","",""
"","","","","","html-keyboard-response","83","2.0.0","198902","pkgr5vfo76d","null","<div style=""font-size: 75px;"">+</div>","null","","",""
"","","","","","image-keyboard-response","84","2.0.0","203021","pkgr5vfo76d","4118","stimuli/41_150_R.jpg","f","response","j","false"
"","","","","","html-keyboard-response","85","2.0.0","203523","pkgr5vfo76d","null","<p style=""border: 5px solid red;"">Incorrect.</p>","null","","",""
"","","","","","html-keyboard-response","86","2.0.0","204524","pkgr5vfo76d","null","<div style=""font-size: 75px;"">+</div>","null","","",""
"","","","","","image-keyboard-response","87","2.0.0","208089","pkgr5vfo76d","3565","stimuli/45_150.jpg","f","response","f","true"
"","","","","","html-keyboard-response","88","2.0.0","208590","pkgr5vfo76d","null","<p style=""border: 5px solid green;"">Correct!</p>","null","","",""
"","","","","","html-keyboard-response","89","2.0.0","209593","pkgr5vfo76d","null","<div style=""font-size: 75px;"">+</div>","null","","",""
"","","","","","image-keyboard-response","90","2.0.0","212413","pkgr5vfo76d","2819","stimuli/47_150_R.jpg","j","response","j","true"
"","","","","","html-keyboard-response","91","2.0.0","212914","pkgr5vfo76d","null","<p style=""border: 5px solid green;"">Correct!</p>","null","","",""
"","","","","","html-keyboard-response","92","2.0.0","213917","pkgr5vfo76d","null","<div style=""font-size: 75px;"">+</div>","null","","",""
"","","","","","image-keyboard-response","93","2.0.0","216909","pkgr5vfo76d","2991","stimuli/16_50.jpg","f","response","f","true"
"","","","","","html-keyboard-response","94","2.0.0","217410","pkgr5vfo76d","null","<p style=""border: 5px solid green;"">Correct!</p>","null","","",""
"","","","","","html-keyboard-response","95","2.0.0","218413","pkgr5vfo76d","null","<div style=""font-size: 75px;"">+</div>","null","","",""
"","","","","","image-keyboard-response","96","2.0.0","220954","pkgr5vfo76d","2540","stimuli/46_0.jpg","f","response","f","true"
"","","","","","html-keyboard-response","97","2.0.0","221456","pkgr5vfo76d","null","<p style=""border: 5px solid green;"">Correct!</p>","null","","",""
"","","","","","html-keyboard-response","98","2.0.0","222458","pkgr5vfo76d","null","<div style=""font-size: 75px;"">+</div>","null","","",""
"","","","","","image-keyboard-response","99","2.0.0","227062","pkgr5vfo76d","4603","stimuli/8_50.jpg","f","response","f","true"
"","","","","","html-keyboard-response","100","2.0.0","227563","pkgr5vfo76d","null","<p style=""border: 5px solid green;"">Correct!</p>","null","","",""
"","","","","","html-keyboard-response","101","2.0.0","228565","pkgr5vfo76d","null","<div style=""font-size: 75px;"">+</div>","null","","",""
"","","","","","image-keyboard-response","102","2.0.0","231371","pkgr5vfo76d","2805","stimuli/33_150_R.jpg","j","response","j","true"
"","","","","","html-keyboard-response","103","2.0.0","231872","pkgr5vfo76d","null","<p style=""border: 5px solid green;"">Correct!</p>","null","","",""
"","","","","","html-keyboard-response","104","2.0.0","232875","pkgr5vfo76d","null","<div style=""font-size: 75px;"">+</div>","null","","",""
"","","","","","image-keyboard-response","105","2.0.0","234453","pkgr5vfo76d","1578","stimuli/32_0.jpg","f","response","f","true"
"","","","","","html-keyboard-response","106","2.0.0","234955","pkgr5vfo76d","null","<p style=""border: 5px solid green;"">Correct!</p>","null","","",""
"","","","","","html-keyboard-response","107","2.0.0","235958","pkgr5vfo76d","null","<div style=""font-size: 75px;"">+</div>","null","","",""
"","","","","","image-keyboard-response","108","2.0.0","241817","pkgr5vfo76d","5858","stimuli/17_50.jpg","j","response","f","false"
"","","","","","html-keyboard-response","109","2.0.0","242318","pkgr5vfo76d","null","<p style=""border: 5px solid red;"">Incorrect.</p>","null","","",""
"","","","","","html-keyboard-response","110","2.0.0","243321","pkgr5vfo76d","null","<div style=""font-size: 75px;"">+</div>","null","","",""
"","","","","","image-keyboard-response","111","2.0.0","250139","pkgr5vfo76d","6817","stimuli/17_150.jpg","f","response","f","true"
"","","","","","html-keyboard-response","112","2.0.0","250641","pkgr5vfo76d","null","<p style=""border: 5px solid green;"">Correct!</p>","null","","",""
"","","","","","html-keyboard-response","113","2.0.0","251643","pkgr5vfo76d","null","<div style=""font-size: 75px;"">+</div>","null","","",""
"","","","","","image-keyboard-response","114","2.0.0","254730","pkgr5vfo76d","3086","stimuli/26_50_R.jpg","j","response","j","true"
"","","","","","html-keyboard-response","115","2.0.0","255232","pkgr5vfo76d","null","<p style=""border: 5px solid green;"">Correct!</p>","null","","",""
"","","","","","html-keyboard-response","116","2.0.0","256234","pkgr5vfo76d","null","<div style=""font-size: 75px;"">+</div>","null","","",""
"","","","","","image-keyboard-response","117","2.0.0","259858","pkgr5vfo76d","3623","stimuli/8_150_R.jpg","f","response","j","false"
"","","","","","html-keyboard-response","118","2.0.0","260360","pkgr5vfo76d","null","<p style=""border: 5px solid red;"">Incorrect.</p>","null","","",""
"","","","","","html-keyboard-response","119","2.0.0","261362","pkgr5vfo76d","null","<div style=""font-size: 75px;"">+</div>","null","","",""
"","","","","","image-keyboard-response","120","2.0.0","265094","pkgr5vfo76d","3731","stimuli/47_50.jpg","f","response","f","true"
"","","","","","html-keyboard-response","121","2.0.0","265595","pkgr5vfo76d","null","<p style=""border: 5px solid green;"">Correct!</p>","null","","",""
"","","","","","html-keyboard-response","122","2.0.0","266598","pkgr5vfo76d","null","<div style=""font-size: 75px;"">+</div>","null","","",""
"","","","","","image-keyboard-response","123","2.0.0","271308","pkgr5vfo76d","4708","stimuli/44_100.jpg","f","response","f","true"
"","","","","","html-keyboard-response","124","2.0.0","271809","pkgr5vfo76d","null","<p style=""border: 5px solid green;"">Correct!</p>","null","","",""
"","","","","","html-keyboard-response","125","2.0.0","272811","pkgr5vfo76d","null","<div style=""font-size: 75px;"">+</div>","null","","",""
"","","","","","image-keyboard-response","126","2.0.0","275285","pkgr5vfo76d","2472","stimuli/41_0.jpg","f","response","f","true"
"","","","","","html-keyboard-response","127","2.0.0","275786","pkgr5vfo76d","null","<p style=""border: 5px solid green;"">Correct!</p>","null","","",""
"","","","","","html-keyboard-response","128","2.0.0","276788","pkgr5vfo76d","null","<div style=""font-size: 75px;"">+</div>","null","","",""
"","","","","","image-keyboard-response","129","2.0.0","279835","pkgr5vfo76d","3047","stimuli/8_50_R.jpg","f","response","j","false"
"","","","","","html-keyboard-response","130","2.0.0","280337","pkgr5vfo76d","null","<p style=""border: 5px solid red;"">Incorrect.</p>","null","","",""
"","","","","","html-keyboard-response","131","2.0.0","281339","pkgr5vfo76d","null","<div style=""font-size: 75px;"">+</div>","null","","",""
"","","","","","image-keyboard-response","132","2.0.0","283979","pkgr5vfo76d","2639","stimuli/14_150.jpg","f","response","f","true"
"","","","","","html-keyboard-response","133","2.0.0","284480","pkgr5vfo76d","null","<p style=""border: 5px solid green;"">Correct!</p>","null","","",""
"","","","","","html-keyboard-response","134","2.0.0","285482","pkgr5vfo76d","null","<div style=""font-size: 75px;"">+</div>","null","","",""
"","","","","","image-keyboard-response","135","2.0.0","289866","pkgr5vfo76d","4383","stimuli/28_0.jpg","f","response","f","true"
"","","","","","html-keyboard-response","136","2.0.0","290367","pkgr5vfo76d","null","<p style=""border: 5px solid green;"">Correct!</p>","null","","",""
"","","","","","html-keyboard-response","137","2.0.0","291369","pkgr5vfo76d","null","<div style=""font-size: 75px;"">+</div>","null","","",""
"","","","","","image-keyboard-response","138","2.0.0","294251","pkgr5vfo76d","2881","stimuli/44_150_R.jpg","f","response","j","false"
"","","","","","html-keyboard-response","139","2.0.0","294753","pkgr5vfo76d","null","<p style=""border: 5px solid red;"">Incorrect.</p>","null","","",""
"","","","","","html-keyboard-response","140","2.0.0","295756","pkgr5vfo76d","null","<div style=""font-size: 75px;"">+</div>","null","","",""
"","","","","","image-keyboard-response","141","2.0.0","303350","pkgr5vfo76d","7594","stimuli/24_100.jpg","f","response","f","true"
"","","","","","html-keyboard-response","142","2.0.0","303851","pkgr5vfo76d","null","<p style=""border: 5px solid green;"">Correct!</p>","null","","",""
"","","","","","html-keyboard-response","143","2.0.0","304853","pkgr5vfo76d","null","<div style=""font-size: 75px;"">+</div>","null","","",""
"","","","","","image-keyboard-response","144","2.0.0","307978","pkgr5vfo76d","3123","stimuli/30_100_R.jpg","f","response","j","false"
"","","","","","html-keyboard-response","145","2.0.0","308479","pkgr5vfo76d","null","<p style=""border: 5px solid red;"">Incorrect.</p>","null","","",""
"","","","","","html-keyboard-response","146","2.0.0","309482","pkgr5vfo76d","null","<div style=""font-size: 75px;"">+</div>","null","","",""
"","","","","","image-keyboard-response","147","2.0.0","310880","pkgr5vfo76d","1397","stimuli/19_150_R.jpg","f","response","j","false"
"","","","","","html-keyboard-response","148","2.0.0","311382","pkgr5vfo76d","null","<p style=""border: 5px solid red;"">Incorrect.</p>","null","","",""
"","","","","","html-keyboard-response","149","2.0.0","341383","pkgr5vfo76d","null","<p> Take a break! Experiment continues in 30 seconds . </p>","null","","",""
"","","","","","html-keyboard-response","150","2.0.0","342385","pkgr5vfo76d","null","<div style=""font-size: 75px;"">+</div>","null","","",""
"","","","","","image-keyboard-response","151","2.0.0","349791","pkgr5vfo76d","7405","stimuli/9_0.jpg","f","response","f","true"
"","","","","","html-keyboard-response","152","2.0.0","350292","pkgr5vfo76d","null","<p style=""border: 5px solid green;"">Correct!</p>","null","","",""
"","","","","","html-keyboard-response","153","2.0.0","351294","pkgr5vfo76d","null","<div style=""font-size: 75px;"">+</div>","null","","",""
"","","","","","image-keyboard-response","154","2.0.0","353317","pkgr5vfo76d","2022","stimuli/36_0.jpg","f","response","f","true"
"","","","","","html-keyboard-response","155","2.0.0","353819","pkgr5vfo76d","null","<p style=""border: 5px solid green;"">Correct!</p>","null","","",""
"","","","","","html-keyboard-response","156","2.0.0","354821","pkgr5vfo76d","null","<div style=""font-size: 75px;"">+</div>","null","","",""
"","","","","","image-keyboard-response","157","2.0.0","360961","pkgr5vfo76d","6138","stimuli/37_100.jpg","j","response","f","false"
"","","","","","html-keyboard-response","158","2.0.0","361461","pkgr5vfo76d","null","<p style=""border: 5px solid red;"">Incorrect.</p>","null","","",""
"","","","","","html-keyboard-response","159","2.0.0","362463","pkgr5vfo76d","null","<div style=""font-size: 75px;"">+</div>","null","","",""
"","","","","","image-keyboard-response","160","2.0.0","364139","pkgr5vfo76d","1675","stimuli/14_50_R.jpg","f","response","j","false"
"","","","","","html-keyboard-response","161","2.0.0","364641","pkgr5vfo76d","null","<p style=""border: 5px solid red;"">Incorrect.</p>","null","","",""
"","","","","","html-keyboard-response","162","2.0.0","365642","pkgr5vfo76d","null","<div style=""font-size: 75px;"">+</div>","null","","",""
"","","","","","image-keyboard-response","163","2.0.0","368340","pkgr5vfo76d","2697","stimuli/5_100_R.jpg","f","response","j","false"
"","","","","","html-keyboard-response","164","2.0.0","368842","pkgr5vfo76d","null","<p style=""border: 5px solid red;"">Incorrect.</p>","null","","",""
"","","","","","html-keyboard-response","165","2.0.0","369843","pkgr5vfo76d","null","<div style=""font-size: 75px;"">+</div>","null","","",""
"","","","","","image-keyboard-response","166","2.0.0","371157","pkgr5vfo76d","1313","stimuli/12_0.jpg","f","response","f","true"
"","","","","","html-keyboard-response","167","2.0.0","371658","pkgr5vfo76d","null","<p style=""border: 5px solid green;"">Correct!</p>","null","","",""
"","","","","","html-keyboard-response","168","2.0.0","372660","pkgr5vfo76d","null","<div style=""font-size: 75px;"">+</div>","null","","",""
"","","","","","image-keyboard-response","169","2.0.0","375104","pkgr5vfo76d","2443","stimuli/16_0_R.jpg","f","response","j","false"
"","","","","","html-keyboard-response","170","2.0.0","375606","pkgr5vfo76d","null","<p style=""border: 5px solid red;"">Incorrect.</p>","null","","",""
"","","","","","html-keyboard-response","171","2.0.0","376608","pkgr5vfo76d","null","<div style=""font-size: 75px;"">+</div>","null","","",""
"","","","","","image-keyboard-response","172","2.0.0","379419","pkgr5vfo76d","2809","stimuli/11_0_R.jpg","f","response","j","false"
"","","","","","html-keyboard-response","173","2.0.0","379921","pkgr5vfo76d","null","<p style=""border: 5px solid red;"">Incorrect.</p>","null","","",""
"","","","","","html-keyboard-response","174","2.0.0","380923","pkgr5vfo76d","null","<div style=""font-size: 75px;"">+</div>","null","","",""
"","","","","","image-keyboard-response","175","2.0.0","385611","pkgr5vfo76d","4686","stimuli/23_100_R.jpg","f","response","j","false"
"","","","","","html-keyboard-response","176","2.0.0","386113","pkgr5vfo76d","null","<p style=""border: 5px solid red;"">Incorrect.</p>","null","","",""
"","","","","","html-keyboard-response","177","2.0.0","387115","pkgr5vfo76d","null","<div style=""font-size: 75px;"">+</div>","null","","",""
"","","","","","image-keyboard-response","178","2.0.0","389921","pkgr5vfo76d","2804","stimuli/42_0_R.jpg","f","response","j","false"
"","","","","","html-keyboard-response","179","2.0.0","390422","pkgr5vfo76d","null","<p style=""border: 5px solid red;"">Incorrect.</p>","null","","",""
"","","","","","html-keyboard-response","180","2.0.0","391425","pkgr5vfo76d","null","<div style=""font-size: 75px;"">+</div>","null","","",""
"","","","","","image-keyboard-response","181","2.0.0","393791","pkgr5vfo76d","2364","stimuli/40_0_R.jpg","f","response","j","false"
"","","","","","html-keyboard-response","182","2.0.0","394292","pkgr5vfo76d","null","<p style=""border: 5px solid red;"">Incorrect.</p>","null","","",""
"","","","","","html-keyboard-response","183","2.0.0","395294","pkgr5vfo76d","null","<div style=""font-size: 75px;"">+</div>","null","","",""
"","","","","","image-keyboard-response","184","2.0.0","396564","pkgr5vfo76d","1269","stimuli/30_50_R.jpg","f","response","j","false"
"","","","","","html-keyboard-response","185","2.0.0","397066","pkgr5vfo76d","null","<p style=""border: 5px solid red;"">Incorrect.</p>","null","","",""
"","","","","","html-keyboard-response","186","2.0.0","398068","pkgr5vfo76d","null","<div style=""font-size: 75px;"">+</div>","null","","",""
"","","","","","image-keyboard-response","187","2.0.0","399350","pkgr5vfo76d","1281","stimuli/43_100.jpg","j","response","f","false"
"","","","","","html-keyboard-response","188","2.0.0","399852","pkgr5vfo76d","null","<p style=""border: 5px solid red;"">Incorrect.</p>","null","","",""
"","","","","","html-keyboard-response","189","2.0.0","400855","pkgr5vfo76d","null","<div style=""font-size: 75px;"">+</div>","null","","",""
"","","","","","image-keyboard-response","190","2.0.0","401724","pkgr5vfo76d","868","stimuli/16_50_R.jpg","f","response","j","false"
"","","","","","html-keyboard-response","191","2.0.0","402226","pkgr5vfo76d","null","<p style=""border: 5px solid red;"">Incorrect.</p>","null","","",""
"","","","","","html-keyboard-response","192","2.0.0","403228","pkgr5vfo76d","null","<div style=""font-size: 75px;"">+</div>","null","","",""
"","","","","","image-keyboard-response","193","2.0.0","404454","pkgr5vfo76d","1224","stimuli/33_100.jpg","f","response","f","true"
"","","","","","html-keyboard-response","194","2.0.0","404955","pkgr5vfo76d","null","<p style=""border: 5px solid green;"">Correct!</p>","null","","",""
"","","","","","html-keyboard-response","195","2.0.0","405957","pkgr5vfo76d","null","<div style=""font-size: 75px;"">+</div>","null","","",""
"","","","","","image-keyboard-response","196","2.0.0","408535","pkgr5vfo76d","2577","stimuli/28_150_R.jpg","f","response","j","false"
"","","","","","html-keyboard-response","197","2.0.0","409037","pkgr5vfo76d","null","<p style=""border: 5px solid red;"">Incorrect.</p>","null","","",""
"","","","","","html-keyboard-response","198","2.0.0","410039","pkgr5vfo76d","null","<div style=""font-size: 75px;"">+</div>","null","","",""
"","","","","","image-keyboard-response","199","2.0.0","412780","pkgr5vfo76d","2739","stimuli/43_100_R.jpg","f","response","j","false"
"","","","","","html-keyboard-response","200","2.0.0","413281","pkgr5vfo76d","null","<p style=""border: 5px solid red;"">Incorrect.</p>","null","","",""
"","","","","","html-keyboard-response","201","2.0.0","414283","pkgr5vfo76d","null","<div style=""font-size: 75px;"">+</div>","null","","",""
"","","","","","image-keyboard-response","202","2.0.0","417655","pkgr5vfo76d","3371","stimuli/42_100_R.jpg","f","response","j","false"
"","","","","","html-keyboard-response","203","2.0.0","418156","pkgr5vfo76d","null","<p style=""border: 5px solid red;"">Incorrect.</p>","null","","",""
"","","","","","html-keyboard-response","204","2.0.0","419158","pkgr5vfo76d","null","<div style=""font-size: 75px;"">+</div>","null","","",""
"","","","","","image-keyboard-response","205","2.0.0","421885","pkgr5vfo76d","2726","stimuli/14_150_R.jpg","f","response","j","false"
"","","","","","html-keyboard-response","206","2.0.0","422386","pkgr5vfo76d","null","<p style=""border: 5px solid red;"">Incorrect.</p>","null","","",""
"","","","","","html-keyboard-response","207","2.0.0","423388","pkgr5vfo76d","null","<div style=""font-size: 75px;"">+</div>","null","","",""
"","","","","","image-keyboard-response","208","2.0.0","425033","pkgr5vfo76d","1644","stimuli/40_150.jpg","f","response","f","true"
"","","","","","html-keyboard-response","209","2.0.0","425534","pkgr5vfo76d","null","<p style=""border: 5px solid green;"">Correct!</p>","null","","",""
"","","","","","html-keyboard-response","210","2.0.0","426537","pkgr5vfo76d","null","<div style=""font-size: 75px;"">+</div>","null","","",""
"","","","","","image-keyboard-response","211","2.0.0","428528","pkgr5vfo76d","1989","stimuli/1_0_R.jpg","f","response","j","false"
"","","","","","html-keyboard-response","212","2.0.0","429029","pkgr5vfo76d","null","<p style=""border: 5px solid red;"">Incorrect.</p>","null","","",""
"","","","","","html-keyboard-response","213","2.0.0","430031","pkgr5vfo76d","null","<div style=""font-size: 75px;"">+</div>","null","","",""
"","","","","","image-keyboard-response","214","2.0.0","432988","pkgr5vfo76d","2956","stimuli/32_100.jpg","j","response","f","false"
"","","","","","html-keyboard-response","215","2.0.0","433489","pkgr5vfo76d","null","<p style=""border: 5px solid red;"">Incorrect.</p>","null","","",""
"","","","","","html-keyboard-response","216","2.0.0","434491","pkgr5vfo76d","null","<div style=""font-size: 75px;"">+</div>","null","","",""
"","","","","","image-keyboard-response","217","2.0.0","435952","pkgr5vfo76d","1459","stimuli/48_50.jpg","f","response","f","true"
"","","","","","html-keyboard-response","218","2.0.0","436453","pkgr5vfo76d","null","<p style=""border: 5px solid green;"">Correct!</p>","null","","",""
"","","","","","html-keyboard-response","219","2.0.0","437456","pkgr5vfo76d","null","<div style=""font-size: 75px;"">+</div>","null","","",""
"","","","","","image-keyboard-response","220","2.0.0","438879","pkgr5vfo76d","1423","stimuli/42_150.jpg","f","response","f","true"
"","","","","","html-keyboard-response","221","2.0.0","439380","pkgr5vfo76d","null","<p style=""border: 5px solid green;"">Correct!</p>","null","","",""
"","","","","","html-keyboard-response","222","2.0.0","440383","pkgr5vfo76d","null","<div style=""font-size: 75px;"">+</div>","null","","",""
"","","","","","image-keyboard-response","223","2.0.0","442469","pkgr5vfo76d","2085","stimuli/19_50.jpg","f","response","f","true"
"","","","","","html-keyboard-response","224","2.0.0","442970","pkgr5vfo76d","null","<p style=""border: 5px solid green;"">Correct!</p>","null","","",""
"","","","","","html-keyboard-response","225","2.0.0","443973","pkgr5vfo76d","null","<div style=""font-size: 75px;"">+</div>","null","","",""
"","","","","","image-keyboard-response","226","2.0.0","445160","pkgr5vfo76d","1186","stimuli/27_0_R.jpg","f","response","j","false"
"","","","","","html-keyboard-response","227","2.0.0","445661","pkgr5vfo76d","null","<p style=""border: 5px solid red;"">Incorrect.</p>","null","","",""
"","","","","","html-keyboard-response","228","2.0.0","446664","pkgr5vfo76d","null","<div style=""font-size: 75px;"">+</div>","null","","",""
"","","","","","image-keyboard-response","229","2.0.0","447951","pkgr5vfo76d","1285","stimuli/6_100_R.jpg","f","response","j","false"
"","","","","","html-keyboard-response","230","2.0.0","448452","pkgr5vfo76d","null","<p style=""border: 5px solid red;"">Incorrect.</p>","null","","",""
"","","","","","html-keyboard-response","231","2.0.0","449454","pkgr5vfo76d","null","<div style=""font-size: 75px;"">+</div>","null","","",""
"","","","","","image-keyboard-response","232","2.0.0","450844","pkgr5vfo76d","1388","stimuli/29_0.jpg","f","response","f","true"
"","","","","","html-keyboard-response","233","2.0.0","451345","pkgr5vfo76d","null","<p style=""border: 5px solid green;"">Correct!</p>","null","","",""
"","","","","","html-keyboard-response","234","2.0.0","452348","pkgr5vfo76d","null","<div style=""font-size: 75px;"">+</div>","null","","",""
"","","","","","image-keyboard-response","235","2.0.0","454259","pkgr5vfo76d","1910","stimuli/46_100_R.jpg","f","response","j","false"
"","","","","","html-keyboard-response","236","2.0.0","454761","pkgr5vfo76d","null","<p style=""border: 5px solid red;"">Incorrect.</p>","null","","",""
"","","","","","html-keyboard-response","237","2.0.0","455763","pkgr5vfo76d","null","<div style=""font-size: 75px;"">+</div>","null","","",""
"","","","","","image-keyboard-response","238","2.0.0","460120","pkgr5vfo76d","4356","stimuli/5_150.jpg","f","response","f","true"
"","","","","","html-keyboard-response","239","2.0.0","460622","pkgr5vfo76d","null","<p style=""border: 5px solid green;"">Correct!</p>","null","","",""
"","","","","","html-keyboard-response","240","2.0.0","461625","pkgr5vfo76d","null","<div style=""font-size: 75px;"">+</div>","null","","",""
"","","","","","image-keyboard-response","241","2.0.0","463637","pkgr5vfo76d","2011","stimuli/44_0_R.jpg","j","response","j","true"
"","","","","","html-keyboard-response","242","2.0.0","464138","pkgr5vfo76d","null","<p style=""border: 5px solid green;"">Correct!</p>","null","","",""
"","","","","","html-keyboard-response","243","2.0.0","465140","pkgr5vfo76d","null","<div style=""font-size: 75px;"">+</div>","null","","",""
"","","","","","image-keyboard-response","244","2.0.0","466108","pkgr5vfo76d","966","stimuli/14_100_R.jpg","f","response","j","false"
"","","","","","html-keyboard-response","245","2.0.0","466610","pkgr5vfo76d","null","<p style=""border: 5px solid red;"">Incorrect.</p>","null","","",""
"","","","","","html-keyboard-response","246","2.0.0","467612","pkgr5vfo76d","null","<div style=""font-size: 75px;"">+</div>","null","","",""
"","","","","","image-keyboard-response","247","2.0.0","468630","pkgr5vfo76d","1018","stimuli/23_0_R.jpg","f","response","j","false"
"","","","","","html-keyboard-response","248","2.0.0","469131","pkgr5vfo76d","null","<p style=""border: 5px solid red;"">Incorrect.</p>","null","","",""
"","","","","","html-keyboard-response","249","2.0.0","470133","pkgr5vfo76d","null","<div style=""font-size: 75px;"">+</div>","null","","",""
"","","","","","image-keyboard-response","250","2.0.0","472508","pkgr5vfo76d","2373","stimuli/34_50_R.jpg","f","response","j","false"
"","","","","","html-keyboard-response","251","2.0.0","473009","pkgr5vfo76d","null","<p style=""border: 5px solid red;"">Incorrect.</p>","null","","",""
"","","","","","html-keyboard-response","252","2.0.0","474011","pkgr5vfo76d","null","<div style=""font-size: 75px;"">+</div>","null","","",""
"","","","","","image-keyboard-response","253","2.0.0","477823","pkgr5vfo76d","3811","stimuli/47_100.jpg","f","response","f","true"
"","","","","","html-keyboard-response","254","2.0.0","478325","pkgr5vfo76d","null","<p style=""border: 5px solid green;"">Correct!</p>","null","","",""
"","","","","","html-keyboard-response","255","2.0.0","479327","pkgr5vfo76d","null","<div style=""font-size: 75px;"">+</div>","null","","",""
"","","","","","image-keyboard-response","256","2.0.0","481156","pkgr5vfo76d","1828","stimuli/26_150.jpg","j","response","f","false"
"","","","","","html-keyboard-response","257","2.0.0","481658","pkgr5vfo76d","null","<p style=""border: 5px solid red;"">Incorrect.</p>","null","","",""
"","","","","","html-keyboard-response","258","2.0.0","482660","pkgr5vfo76d","null","<div style=""font-size: 75px;"">+</div>","null","","",""
"","","","","","image-keyboard-response","259","2.0.0","483744","pkgr5vfo76d","1083","stimuli/27_0.jpg","f","response","f","true"
"","","","","","html-keyboard-response","260","2.0.0","484246","pkgr5vfo76d","null","<p style=""border: 5px solid green;"">Correct!</p>","null","","",""
"","","","","","html-keyboard-response","261","2.0.0","485248","pkgr5vfo76d","null","<div style=""font-size: 75px;"">+</div>","null","","",""
"","","","","","image-keyboard-response","262","2.0.0","486250","pkgr5vfo76d","1000","stimuli/18_50.jpg","f","response","f","true"
"","","","","","html-keyboard-response","263","2.0.0","486752","pkgr5vfo76d","null","<p style=""border: 5px solid green;"">Correct!</p>","null","","",""
"","","","","","html-keyboard-response","264","2.0.0","487755","pkgr5vfo76d","null","<div style=""font-size: 75px;"">+</div>","null","","",""
"","","","","","image-keyboard-response","265","2.0.0","489892","pkgr5vfo76d","2136","stimuli/26_50.jpg","f","response","f","true"
"","","","","","html-keyboard-response","266","2.0.0","490393","pkgr5vfo76d","null","<p style=""border: 5px solid green;"">Correct!</p>","null","","",""
"","","","","","html-keyboard-response","267","2.0.0","491395","pkgr5vfo76d","null","<div style=""font-size: 75px;"">+</div>","null","","",""
"","","","","","image-keyboard-response","268","2.0.0","493021","pkgr5vfo76d","1626","stimuli/30_150.jpg","f","response","f","true"
"","","","","","html-keyboard-response","269","2.0.0","493523","pkgr5vfo76d","null","<p style=""border: 5px solid green;"">Correct!</p>","null","","",""
"","","","","","html-keyboard-response","270","2.0.0","494525","pkgr5vfo76d","null","<div style=""font-size: 75px;"">+</div>","null","","",""
"","","","","","image-keyboard-response","271","2.0.0","496304","pkgr5vfo76d","1778","stimuli/46_150.jpg","f","response","f","true"
"","","","","","html-keyboard-response","272","2.0.0","496806","pkgr5vfo76d","null","<p style=""border: 5px solid green;"">Correct!</p>","null","","",""
"","","","","","html-keyboard-response","273","2.0.0","497809","pkgr5vfo76d","null","<div style=""font-size: 75px;"">+</div>","null","","",""
"","","","","","image-keyboard-response","274","2.0.0","499150","pkgr5vfo76d","1340","stimuli/31_50_R.jpg","f","response","j","false"
"","","","","","html-keyboard-response","275","2.0.0","499651","pkgr5vfo76d","null","<p style=""border: 5px solid red;"">Incorrect.</p>","null","","",""
"","","","","","html-keyboard-response","276","2.0.0","500654","pkgr5vfo76d","null","<div style=""font-size: 75px;"">+</div>","null","","",""
"","","","","","image-keyboard-response","277","2.0.0","502010","pkgr5vfo76d","1355","stimuli/48_0_R.jpg","f","response","j","false"
"","","","","","html-keyboard-response","278","2.0.0","502511","pkgr5vfo76d","null","<p style=""border: 5px solid red;"">Incorrect.</p>","null","","",""
"","","","","","html-keyboard-response","279","2.0.0","503514","pkgr5vfo76d","null","<div style=""font-size: 75px;"">+</div>","null","","",""
"","","","","","image-keyboard-response","280","2.0.0","504792","pkgr5vfo76d","1277","stimuli/42_150_R.jpg","f","response","j","false"
"","","","","","html-keyboard-response","281","2.0.0","505293","pkgr5vfo76d","null","<p style=""border: 5px solid red;"">Incorrect.</p>","null","","",""
"","","","","","html-keyboard-response","282","2.0.0","506294","pkgr5vfo76d","null","<div style=""font-size: 75px;"">+</div>","null","","",""
"","","","","","image-keyboard-response","283","2.0.0","507268","pkgr5vfo76d","973","stimuli/21_0_R.jpg","f","response","j","false"
"","","","","","html-keyboard-response","284","2.0.0","507769","pkgr5vfo76d","null","<p style=""border: 5px solid red;"">Incorrect.</p>","null","","",""
"","","","","","html-keyboard-response","285","2.0.0","508771","pkgr5vfo76d","null","<div style=""font-size: 75px;"">+</div>","null","","",""
"","","","","","image-keyboard-response","286","2.0.0","511368","pkgr5vfo76d","2596","stimuli/4_0_R.jpg","f","response","j","false"
"","","","","","html-keyboard-response","287","2.0.0","511869","pkgr5vfo76d","null","<p style=""border: 5px solid red;"">Incorrect.</p>","null","","",""
"","","","","","html-keyboard-response","288","2.0.0","512872","pkgr5vfo76d","null","<div style=""font-size: 75px;"">+</div>","null","","",""
"","","","","","image-keyboard-response","289","2.0.0","514902","pkgr5vfo76d","2029","stimuli/42_50.jpg","j","response","f","false"
"","","","","","html-keyboard-response","290","2.0.0","515403","pkgr5vfo76d","null","<p style=""border: 5px solid red;"">Incorrect.</p>","null","","",""
"","","","","","html-keyboard-response","291","2.0.0","516405","pkgr5vfo76d","null","<div style=""font-size: 75px;"">+</div>","null","","",""
"","","","","","image-keyboard-response","292","2.0.0","517867","pkgr5vfo76d","1460","stimuli/32_50_R.jpg","f","response","j","false"
"","","","","","html-keyboard-response","293","2.0.0","518368","pkgr5vfo76d","null","<p style=""border: 5px solid red;"">Incorrect.</p>","null","","",""
"","","","","","html-keyboard-response","294","2.0.0","521333","pkgr5vfo76d","2964","<p>Thank you for participating!</p><p>Please press space to answer our survey.</p>"," ","","",""
"","","","","","survey-html-form","295","null","666701","pkgr5vfo76d","145367","","{""response_1"":""Clear and lively"",""response_2"":""Clear and lively"",""response_3"":""Moderately clear and lively"",""response_4"":""Perfectly clear and lively as real seeing"",""response_5"":""Moderately clear and lively"",""response_6"":""Perfectly clear and lively as real seeing"",""response_7"":""Moderately clear and lively"",""response_8"":""Moderately clear and lively"",""response_9"":""Dim and vague; flat"",""response_10"":""Moderately clear and lively"",""response_11"":""Moderately clear and lively"",""response_12"":""No image at all, you only “know” that you are thinking of the object"",""response_13"":""Clear and lively"",""response_14"":""Clear and lively"",""response_15"":""Clear and lively"",""response_16"":""Perfectly clear and lively as real seeing""}","","",""
"","","","","","survey-html-form","296","null","709484","pkgr5vfo76d","42781","","{""age"":""25"",""gender"":""female"",""education"":""some-college"",""handedness"":""right"",""vision"":""normal"",""technical_difficulties"":""NA"",""knowledge_check"":""imagination and spacial recognition""}","","",""
