"success","timeout","failed_images","failed_audio","failed_video","trial_type","trial_index","plugin_version","time_elapsed","random_id","rt","stimulus","response","task","correct_response","correct"
"true","false","[]","[]","[]","preload","0","2.0.0","7762","plxqhc69kn8","","","","","",""
"true","","","","","fullscreen","1","2.0.0","27999","plxqhc69kn8","19233","","","","",""
"","","","","","html-keyboard-response","2","2.0.0","29924","plxqhc69kn8","1923","Welcome to the experiment. Press any key to begin."," ","","",""
"","","","","","survey-text","3","2.0.0","33390","plxqhc69kn8","3462","","{""participant_id"":""pelican""}","","",""
"","","","","","html-keyboard-response","4","2.0.0","40311","plxqhc69kn8","6920","
        <p>Welcome to the experiment.</p>
        <p>In this task, you will see pairs of images.</p>
        <p>Your job is to determine whether the image on the right is a rotated version of the image on the left.</p>
        <p>Press the <strong>F</strong> key if the images are the same.</p>
        <p>Press the <strong>J</strong> key if the images are different.</p>
        <p>Press any key to begin.</p>
    ","Enter","","",""
"","","","","","html-keyboard-response","5","2.0.0","41314","plxqhc69kn8","null","<div style=""font-size: 75px;"">+</div>","null","","",""
"","","","","","image-keyboard-response","6","2.0.0","48911","plxqhc69kn8","7591","stimuli/7_50_R.jpg","f","response","j","false"
"","","","","","html-keyboard-response","7","2.0.0","49412","plxqhc69kn8","null","<p style=""border: 5px solid red;"">Incorrect.</p>","null","","",""
"","","","","","html-keyboard-response","8","2.0.0","50415","plxqhc69kn8","null","<div style=""font-size: 75px;"">+</div>","null","","",""
"","","","","","image-keyboard-response","9","2.0.0","53067","plxqhc69kn8","2649","stimuli/23_150.jpg","f","response","f","true"
"","","","","","html-keyboard-response","10","2.0.0","53568","plxqhc69kn8","null","<p style=""border: 5px solid green;"">Correct!</p>","null","","",""
"","","","","","html-keyboard-response","11","2.0.0","54570","plxqhc69kn8","null","<div style=""font-size: 75px;"">+</div>","null","","",""
"","","","","","image-keyboard-response","12","2.0.0","57690","plxqhc69kn8","3118","stimuli/19_150.jpg","f","response","f","true"
"","","","","","html-keyboard-response","13","2.0.0","58191","plxqhc69kn8","null","<p style=""border: 5px solid green;"">Correct!</p>","null","","",""
"","","","","","html-keyboard-response","14","2.0.0","59193","plxqhc69kn8","null","<div style=""font-size: 75px;"">+</div>","null","","",""
"","","","","","image-keyboard-response","15","2.0.0","63464","plxqhc69kn8","4270","stimuli/16_150_R.jpg","f","response","j","false"
"","","","","","html-keyboard-response","16","2.0.0","63966","plxqhc69kn8","null","<p style=""border: 5px solid red;"">Incorrect.</p>","null","","",""
"","","","","","html-keyboard-response","17","2.0.0","64968","plxqhc69kn8","null","<div style=""font-size: 75px;"">+</div>","null","","",""
"","","","","","image-keyboard-response","18","2.0.0","76270","plxqhc69kn8","11299","stimuli/46_100.jpg","f","response","f","true"
"","","","","","html-keyboard-response","19","2.0.0","76771","plxqhc69kn8","null","<p style=""border: 5px solid green;"">Correct!</p>","null","","",""
"","","","","","html-keyboard-response","20","2.0.0","77773","plxqhc69kn8","null","<div style=""font-size: 75px;"">+</div>","null","","",""
"","","","","","image-keyboard-response","21","2.0.0","85213","plxqhc69kn8","7438","stimuli/35_100_R.jpg","j","response","j","true"
"","","","","","html-keyboard-response","22","2.0.0","85715","plxqhc69kn8","null","<p style=""border: 5px solid green;"">Correct!</p>","null","","",""
"","","","","","html-keyboard-response","23","2.0.0","86718","plxqhc69kn8","null","<div style=""font-size: 75px;"">+</div>","null","","",""
"","","","","","image-keyboard-response","24","2.0.0","94902","plxqhc69kn8","8181","stimuli/30_150.jpg","f","response","f","true"
"","","","","","html-keyboard-response","25","2.0.0","95405","plxqhc69kn8","null","<p style=""border: 5px solid green;"">Correct!</p>","null","","",""
"","","","","","html-keyboard-response","26","2.0.0","96407","plxqhc69kn8","null","<div style=""font-size: 75px;"">+</div>","null","","",""
"","","","","","image-keyboard-response","27","2.0.0","99333","plxqhc69kn8","2924","stimuli/41_50_R.jpg","f","response","j","false"
"","","","","","html-keyboard-response","28","2.0.0","99834","plxqhc69kn8","null","<p style=""border: 5px solid red;"">Incorrect.</p>","null","","",""
"","","","","","html-keyboard-response","29","2.0.0","100836","plxqhc69kn8","null","<div style=""font-size: 75px;"">+</div>","null","","",""
"","","","","","image-keyboard-response","30","2.0.0","230894","plxqhc69kn8","130055","stimuli/47_100.jpg","f","response","f","true"
"","","","","","html-keyboard-response","31","2.0.0","231396","plxqhc69kn8","null","<p style=""border: 5px solid green;"">Correct!</p>","null","","",""
"","","","","","html-keyboard-response","32","2.0.0","232399","plxqhc69kn8","null","<div style=""font-size: 75px;"">+</div>","null","","",""
"","","","","","image-keyboard-response","33","2.0.0","236194","plxqhc69kn8","3791","stimuli/15_50.jpg","f","response","f","true"
"","","","","","html-keyboard-response","34","2.0.0","236695","plxqhc69kn8","null","<p style=""border: 5px solid green;"">Correct!</p>","null","","",""
"","","","","","html-keyboard-response","35","2.0.0","237698","plxqhc69kn8","null","<div style=""font-size: 75px;"">+</div>","null","","",""
"","","","","","image-keyboard-response","36","2.0.0","240010","plxqhc69kn8","2310","stimuli/41_150_R.jpg","f","response","j","false"
"","","","","","html-keyboard-response","37","2.0.0","240512","plxqhc69kn8","null","<p style=""border: 5px solid red;"">Incorrect.</p>","null","","",""
"","","","","","html-keyboard-response","38","2.0.0","241516","plxqhc69kn8","null","<div style=""font-size: 75px;"">+</div>","null","","",""
"","","","","","image-keyboard-response","39","2.0.0","244975","plxqhc69kn8","3457","stimuli/16_150.jpg","f","response","f","true"
"","","","","","html-keyboard-response","40","2.0.0","245476","plxqhc69kn8","null","<p style=""border: 5px solid green;"">Correct!</p>","null","","",""
"","","","","","html-keyboard-response","41","2.0.0","246479","plxqhc69kn8","null","<div style=""font-size: 75px;"">+</div>","null","","",""
"","","","","","image-keyboard-response","42","2.0.0","250222","plxqhc69kn8","3741","stimuli/46_0_R.jpg","j","response","j","true"
"","","","","","html-keyboard-response","43","2.0.0","250724","plxqhc69kn8","null","<p style=""border: 5px solid green;"">Correct!</p>","null","","",""
"","","","","","html-keyboard-response","44","2.0.0","251725","plxqhc69kn8","null","<div style=""font-size: 75px;"">+</div>","null","","",""
"","","","","","image-keyboard-response","45","2.0.0","254251","plxqhc69kn8","2523","stimuli/3_0_R.jpg","j","response","j","true"
"","","","","","html-keyboard-response","46","2.0.0","254753","plxqhc69kn8","null","<p style=""border: 5px solid green;"">Correct!</p>","null","","",""
"","","","","","html-keyboard-response","47","2.0.0","255755","plxqhc69kn8","null","<div style=""font-size: 75px;"">+</div>","null","","",""
"","","","","","image-keyboard-response","48","2.0.0","259027","plxqhc69kn8","3270","stimuli/14_100.jpg","f","response","f","true"
"","","","","","html-keyboard-response","49","2.0.0","259529","plxqhc69kn8","null","<p style=""border: 5px solid green;"">Correct!</p>","null","","",""
"","","","","","html-keyboard-response","50","2.0.0","260532","plxqhc69kn8","null","<div style=""font-size: 75px;"">+</div>","null","","",""
"","","","","","image-keyboard-response","51","2.0.0","263837","plxqhc69kn8","3302","stimuli/46_100_R.jpg","j","response","j","true"
"","","","","","html-keyboard-response","52","2.0.0","264338","plxqhc69kn8","null","<p style=""border: 5px solid green;"">Correct!</p>","null","","",""
"","","","","","html-keyboard-response","53","2.0.0","265341","plxqhc69kn8","null","<div style=""font-size: 75px;"">+</div>","null","","",""
"","","","","","image-keyboard-response","54","2.0.0","268301","plxqhc69kn8","2958","stimuli/2_100_R.jpg","j","response","j","true"
"","","","","","html-keyboard-response","55","2.0.0","268803","plxqhc69kn8","null","<p style=""border: 5px solid green;"">Correct!</p>","null","","",""
"","","","","","html-keyboard-response","56","2.0.0","269806","plxqhc69kn8","null","<div style=""font-size: 75px;"">+</div>","null","","",""
"","","","","","image-keyboard-response","57","2.0.0","275055","plxqhc69kn8","5246","stimuli/9_50.jpg","f","response","f","true"
"","","","","","html-keyboard-response","58","2.0.0","275556","plxqhc69kn8","null","<p style=""border: 5px solid green;"">Correct!</p>","null","","",""
"","","","","","html-keyboard-response","59","2.0.0","276559","plxqhc69kn8","null","<div style=""font-size: 75px;"">+</div>","null","","",""
"","","","","","image-keyboard-response","60","2.0.0","327761","plxqhc69kn8","51199","stimuli/40_0.jpg","f","response","f","true"
"","","","","","html-keyboard-response","61","2.0.0","328264","plxqhc69kn8","null","<p style=""border: 5px solid green;"">Correct!</p>","null","","",""
"","","","","","html-keyboard-response","62","2.0.0","329266","plxqhc69kn8","null","<div style=""font-size: 75px;"">+</div>","null","","",""
"","","","","","image-keyboard-response","63","2.0.0","333014","plxqhc69kn8","3745","stimuli/27_0_R.jpg","j","response","j","true"
"","","","","","html-keyboard-response","64","2.0.0","333516","plxqhc69kn8","null","<p style=""border: 5px solid green;"">Correct!</p>","null","","",""
"","","","","","html-keyboard-response","65","2.0.0","334517","plxqhc69kn8","null","<div style=""font-size: 75px;"">+</div>","null","","",""
"","","","","","image-keyboard-response","66","2.0.0","337902","plxqhc69kn8","3383","stimuli/44_150_R.jpg","j","response","j","true"
"","","","","","html-keyboard-response","67","2.0.0","338403","plxqhc69kn8","null","<p style=""border: 5px solid green;"">Correct!</p>","null","","",""
"","","","","","html-keyboard-response","68","2.0.0","339406","plxqhc69kn8","null","<div style=""font-size: 75px;"">+</div>","null","","",""
"","","","","","image-keyboard-response","69","2.0.0","345154","plxqhc69kn8","5746","stimuli/43_150.jpg","f","response","f","true"
"","","","","","html-keyboard-response","70","2.0.0","345656","plxqhc69kn8","null","<p style=""border: 5px solid green;"">Correct!</p>","null","","",""
"","","","","","html-keyboard-response","71","2.0.0","346658","plxqhc69kn8","null","<div style=""font-size: 75px;"">+</div>","null","","",""
"","","","","","image-keyboard-response","72","2.0.0","387469","plxqhc69kn8","40808","stimuli/12_100.jpg","f","response","f","true"
"","","","","","html-keyboard-response","73","2.0.0","387971","plxqhc69kn8","null","<p style=""border: 5px solid green;"">Correct!</p>","null","","",""
"","","","","","html-keyboard-response","74","2.0.0","388973","plxqhc69kn8","null","<div style=""font-size: 75px;"">+</div>","null","","",""
"","","","","","image-keyboard-response","75","2.0.0","392308","plxqhc69kn8","3333","stimuli/15_50_R.jpg","j","response","j","true"
"","","","","","html-keyboard-response","76","2.0.0","392810","plxqhc69kn8","null","<p style=""border: 5px solid green;"">Correct!</p>","null","","",""
"","","","","","html-keyboard-response","77","2.0.0","393812","plxqhc69kn8","null","<div style=""font-size: 75px;"">+</div>","null","","",""
"","","","","","image-keyboard-response","78","2.0.0","395916","plxqhc69kn8","2102","stimuli/11_0.jpg","f","response","f","true"
"","","","","","html-keyboard-response","79","2.0.0","396418","plxqhc69kn8","null","<p style=""border: 5px solid green;"">Correct!</p>","null","","",""
"","","","","","html-keyboard-response","80","2.0.0","397420","plxqhc69kn8","null","<div style=""font-size: 75px;"">+</div>","null","","",""
"","","","","","image-keyboard-response","81","2.0.0","399815","plxqhc69kn8","2393","stimuli/8_0.jpg","f","response","f","true"
"","","","","","html-keyboard-response","82","2.0.0","400317","plxqhc69kn8","null","<p style=""border: 5px solid green;"">Correct!</p>","null","","",""
"","","","","","html-keyboard-response","83","2.0.0","401319","plxqhc69kn8","null","<div style=""font-size: 75px;"">+</div>","null","","",""
"","","","","","image-keyboard-response","84","2.0.0","407368","plxqhc69kn8","6048","stimuli/30_100.jpg","f","response","f","true"
"","","","","","html-keyboard-response","85","2.0.0","407870","plxqhc69kn8","null","<p style=""border: 5px solid green;"">Correct!</p>","null","","",""
"","","","","","html-keyboard-response","86","2.0.0","408872","plxqhc69kn8","null","<div style=""font-size: 75px;"">+</div>","null","","",""
"","","","","","image-keyboard-response","87","2.0.0","411025","plxqhc69kn8","2150","stimuli/5_150_R.jpg","j","response","j","true"
"","","","","","html-keyboard-response","88","2.0.0","411526","plxqhc69kn8","null","<p style=""border: 5px solid green;"">Correct!</p>","null","","",""
"","","","","","html-keyboard-response","89","2.0.0","412529","plxqhc69kn8","null","<div style=""font-size: 75px;"">+</div>","null","","",""
"","","","","","image-keyboard-response","90","2.0.0","415337","plxqhc69kn8","2805","stimuli/1_100_R.jpg","j","response","j","true"
"","","","","","html-keyboard-response","91","2.0.0","415838","plxqhc69kn8","null","<p style=""border: 5px solid green;"">Correct!</p>","null","","",""
"","","","","","html-keyboard-response","92","2.0.0","416839","plxqhc69kn8","null","<div style=""font-size: 75px;"">+</div>","null","","",""
"","","","","","image-keyboard-response","93","2.0.0","419181","plxqhc69kn8","2340","stimuli/12_0_R.jpg","j","response","j","true"
"","","","","","html-keyboard-response","94","2.0.0","419682","plxqhc69kn8","null","<p style=""border: 5px solid green;"">Correct!</p>","null","","",""
"","","","","","html-keyboard-response","95","2.0.0","420684","plxqhc69kn8","null","<div style=""font-size: 75px;"">+</div>","null","","",""
"","","","","","image-keyboard-response","96","2.0.0","423503","plxqhc69kn8","2817","stimuli/38_100_R.jpg","j","response","j","true"
"","","","","","html-keyboard-response","97","2.0.0","424004","plxqhc69kn8","null","<p style=""border: 5px solid green;"">Correct!</p>","null","","",""
"","","","","","html-keyboard-response","98","2.0.0","425006","plxqhc69kn8","null","<div style=""font-size: 75px;"">+</div>","null","","",""
"","","","","","image-keyboard-response","99","2.0.0","428793","plxqhc69kn8","3785","stimuli/6_50.jpg","f","response","f","true"
"","","","","","html-keyboard-response","100","2.0.0","429294","plxqhc69kn8","null","<p style=""border: 5px solid green;"">Correct!</p>","null","","",""
"","","","","","html-keyboard-response","101","2.0.0","430295","plxqhc69kn8","null","<div style=""font-size: 75px;"">+</div>","null","","",""
"","","","","","image-keyboard-response","102","2.0.0","434228","plxqhc69kn8","3931","stimuli/20_100_R.jpg","j","response","j","true"
"","","","","","html-keyboard-response","103","2.0.0","434729","plxqhc69kn8","null","<p style=""border: 5px solid green;"">Correct!</p>","null","","",""
"","","","","","html-keyboard-response","104","2.0.0","435732","plxqhc69kn8","null","<div style=""font-size: 75px;"">+</div>","null","","",""
"","","","","","image-keyboard-response","105","2.0.0","440045","plxqhc69kn8","4310","stimuli/5_100_R.jpg","j","response","j","true"
"","","","","","html-keyboard-response","106","2.0.0","440547","plxqhc69kn8","null","<p style=""border: 5px solid green;"">Correct!</p>","null","","",""
"","","","","","html-keyboard-response","107","2.0.0","441550","plxqhc69kn8","null","<div style=""font-size: 75px;"">+</div>","null","","",""
"","","","","","image-keyboard-response","108","2.0.0","470971","plxqhc69kn8","29419","stimuli/32_150.jpg","j","response","f","false"
"","","","","","html-keyboard-response","109","2.0.0","471473","plxqhc69kn8","null","<p style=""border: 5px solid red;"">Incorrect.</p>","null","","",""
"","","","","","html-keyboard-response","110","2.0.0","472475","plxqhc69kn8","null","<div style=""font-size: 75px;"">+</div>","null","","",""
"","","","","","image-keyboard-response","111","2.0.0","474201","plxqhc69kn8","1722","stimuli/26_0.jpg","f","response","f","true"
"","","","","","html-keyboard-response","112","2.0.0","474702","plxqhc69kn8","null","<p style=""border: 5px solid green;"">Correct!</p>","null","","",""
"","","","","","html-keyboard-response","113","2.0.0","475703","plxqhc69kn8","null","<div style=""font-size: 75px;"">+</div>","null","","",""
"","","","","","image-keyboard-response","114","2.0.0","477386","plxqhc69kn8","1681","stimuli/27_0.jpg","j","response","f","false"
"","","","","","html-keyboard-response","115","2.0.0","477887","plxqhc69kn8","null","<p style=""border: 5px solid red;"">Incorrect.</p>","null","","",""
"","","","","","html-keyboard-response","116","2.0.0","478888","plxqhc69kn8","null","<div style=""font-size: 75px;"">+</div>","null","","",""
"","","","","","image-keyboard-response","117","2.0.0","480956","plxqhc69kn8","2067","stimuli/41_100_R.jpg","j","response","j","true"
"","","","","","html-keyboard-response","118","2.0.0","481458","plxqhc69kn8","null","<p style=""border: 5px solid green;"">Correct!</p>","null","","",""
"","","","","","html-keyboard-response","119","2.0.0","482460","plxqhc69kn8","null","<div style=""font-size: 75px;"">+</div>","null","","",""
"","","","","","image-keyboard-response","120","2.0.0","497331","plxqhc69kn8","14869","stimuli/5_0_R.jpg","j","response","j","true"
"","","","","","html-keyboard-response","121","2.0.0","497832","plxqhc69kn8","null","<p style=""border: 5px solid green;"">Correct!</p>","null","","",""
"","","","","","html-keyboard-response","122","2.0.0","498834","plxqhc69kn8","null","<div style=""font-size: 75px;"">+</div>","null","","",""
"","","","","","image-keyboard-response","123","2.0.0","500663","plxqhc69kn8","1827","stimuli/15_150_R.jpg","j","response","j","true"
"","","","","","html-keyboard-response","124","2.0.0","501165","plxqhc69kn8","null","<p style=""border: 5px solid green;"">Correct!</p>","null","","",""
"","","","","","html-keyboard-response","125","2.0.0","502167","plxqhc69kn8","null","<div style=""font-size: 75px;"">+</div>","null","","",""
"","","","","","image-keyboard-response","126","2.0.0","505180","plxqhc69kn8","3010","stimuli/19_50.jpg","f","response","f","true"
"","","","","","html-keyboard-response","127","2.0.0","505682","plxqhc69kn8","null","<p style=""border: 5px solid green;"">Correct!</p>","null","","",""
"","","","","","html-keyboard-response","128","2.0.0","506684","plxqhc69kn8","null","<div style=""font-size: 75px;"">+</div>","null","","",""
"","","","","","image-keyboard-response","129","2.0.0","521276","plxqhc69kn8","14590","stimuli/17_0_R.jpg","j","response","j","true"
"","","","","","html-keyboard-response","130","2.0.0","521778","plxqhc69kn8","null","<p style=""border: 5px solid green;"">Correct!</p>","null","","",""
"","","","","","html-keyboard-response","131","2.0.0","522780","plxqhc69kn8","null","<div style=""font-size: 75px;"">+</div>","null","","",""
"","","","","","image-keyboard-response","132","2.0.0","523863","plxqhc69kn8","1080","stimuli/7_0.jpg","f","response","f","true"
"","","","","","html-keyboard-response","133","2.0.0","524365","plxqhc69kn8","null","<p style=""border: 5px solid green;"">Correct!</p>","null","","",""
"","","","","","html-keyboard-response","134","2.0.0","525367","plxqhc69kn8","null","<div style=""font-size: 75px;"">+</div>","null","","",""
"","","","","","image-keyboard-response","135","2.0.0","527302","plxqhc69kn8","1932","stimuli/26_50.jpg","f","response","f","true"
"","","","","","html-keyboard-response","136","2.0.0","527803","plxqhc69kn8","null","<p style=""border: 5px solid green;"">Correct!</p>","null","","",""
"","","","","","html-keyboard-response","137","2.0.0","528806","plxqhc69kn8","null","<div style=""font-size: 75px;"">+</div>","null","","",""
"","","","","","image-keyboard-response","138","2.0.0","532352","plxqhc69kn8","3543","stimuli/18_100.jpg","f","response","f","true"
"","","","","","html-keyboard-response","139","2.0.0","532854","plxqhc69kn8","null","<p style=""border: 5px solid green;"">Correct!</p>","null","","",""
"","","","","","html-keyboard-response","140","2.0.0","533855","plxqhc69kn8","null","<div style=""font-size: 75px;"">+</div>","null","","",""
"","","","","","image-keyboard-response","141","2.0.0","537033","plxqhc69kn8","3176","stimuli/45_50_R.jpg","j","response","j","true"
"","","","","","html-keyboard-response","142","2.0.0","537535","plxqhc69kn8","null","<p style=""border: 5px solid green;"">Correct!</p>","null","","",""
"","","","","","html-keyboard-response","143","2.0.0","538536","plxqhc69kn8","null","<div style=""font-size: 75px;"">+</div>","null","","",""
"","","","","","image-keyboard-response","144","2.0.0","541331","plxqhc69kn8","2793","stimuli/23_100.jpg","f","response","f","true"
"","","","","","html-keyboard-response","145","2.0.0","541832","plxqhc69kn8","null","<p style=""border: 5px solid green;"">Correct!</p>","null","","",""
"","","","","","html-keyboard-response","146","2.0.0","542834","plxqhc69kn8","null","<div style=""font-size: 75px;"">+</div>","null","","",""
"","","","","","image-keyboard-response","147","2.0.0","546585","plxqhc69kn8","3749","stimuli/36_50.jpg","f","response","f","true"
"","","","","","html-keyboard-response","148","2.0.0","547086","plxqhc69kn8","null","<p style=""border: 5px solid green;"">Correct!</p>","null","","",""
"","","","","","html-keyboard-response","149","2.0.0","577087","plxqhc69kn8","null","<p> Take a break! Experiment continues in 30 seconds . </p>","null","","",""
"","","","","","html-keyboard-response","150","2.0.0","578090","plxqhc69kn8","null","<div style=""font-size: 75px;"">+</div>","null","","",""
"","","","","","image-keyboard-response","151","2.0.0","585829","plxqhc69kn8","7736","stimuli/43_100.jpg","f","response","f","true"
"","","","","","html-keyboard-response","152","2.0.0","586331","plxqhc69kn8","null","<p style=""border: 5px solid green;"">Correct!</p>","null","","",""
"","","","","","html-keyboard-response","153","2.0.0","587333","plxqhc69kn8","null","<div style=""font-size: 75px;"">+</div>","null","","",""
"","","","","","image-keyboard-response","154","2.0.0","590053","plxqhc69kn8","2708","stimuli/28_100.jpg","f","response","f","true"
"","","","","","html-keyboard-response","155","2.0.0","590555","plxqhc69kn8","null","<p style=""border: 5px solid green;"">Correct!</p>","null","","",""
"","","","","","html-keyboard-response","156","2.0.0","591558","plxqhc69kn8","null","<div style=""font-size: 75px;"">+</div>","null","","",""
"","","","","","image-keyboard-response","157","2.0.0","592826","plxqhc69kn8","1265","stimuli/37_0.jpg","f","response","f","true"
"","","","","","html-keyboard-response","158","2.0.0","593328","plxqhc69kn8","null","<p style=""border: 5px solid green;"">Correct!</p>","null","","",""
"","","","","","html-keyboard-response","159","2.0.0","594330","plxqhc69kn8","null","<div style=""font-size: 75px;"">+</div>","null","","",""
"","","","","","image-keyboard-response","160","2.0.0","596818","plxqhc69kn8","2486","stimuli/4_150_R.jpg","f","response","j","false"
"","","","","","html-keyboard-response","161","2.0.0","597319","plxqhc69kn8","null","<p style=""border: 5px solid red;"">Incorrect.</p>","null","","",""
"","","","","","html-keyboard-response","162","2.0.0","598320","plxqhc69kn8","null","<div style=""font-size: 75px;"">+</div>","null","","",""
"","","","","","image-keyboard-response","163","2.0.0","601867","plxqhc69kn8","3546","stimuli/3_150.jpg","f","response","f","true"
"","","","","","html-keyboard-response","164","2.0.0","602369","plxqhc69kn8","null","<p style=""border: 5px solid green;"">Correct!</p>","null","","",""
"","","","","","html-keyboard-response","165","2.0.0","603370","plxqhc69kn8","null","<div style=""font-size: 75px;"">+</div>","null","","",""
"","","","","","image-keyboard-response","166","2.0.0","606571","plxqhc69kn8","3200","stimuli/24_0_R.jpg","j","response","j","true"
"","","","","","html-keyboard-response","167","2.0.0","607073","plxqhc69kn8","null","<p style=""border: 5px solid green;"">Correct!</p>","null","","",""
"","","","","","html-keyboard-response","168","2.0.0","608075","plxqhc69kn8","null","<div style=""font-size: 75px;"">+</div>","null","","",""
"","","","","","image-keyboard-response","169","2.0.0","650959","plxqhc69kn8","42882","stimuli/41_0.jpg","f","response","f","true"
"","","","","","html-keyboard-response","170","2.0.0","651461","plxqhc69kn8","null","<p style=""border: 5px solid green;"">Correct!</p>","null","","",""
"","","","","","html-keyboard-response","171","2.0.0","652463","plxqhc69kn8","null","<div style=""font-size: 75px;"">+</div>","null","","",""
"","","","","","image-keyboard-response","172","2.0.0","656309","plxqhc69kn8","3845","stimuli/45_100.jpg","f","response","f","true"
"","","","","","html-keyboard-response","173","2.0.0","656810","plxqhc69kn8","null","<p style=""border: 5px solid green;"">Correct!</p>","null","","",""
"","","","","","html-keyboard-response","174","2.0.0","657813","plxqhc69kn8","null","<div style=""font-size: 75px;"">+</div>","null","","",""
"","","","","","image-keyboard-response","175","2.0.0","660302","plxqhc69kn8","2487","stimuli/42_100.jpg","f","response","f","true"
"","","","","","html-keyboard-response","176","2.0.0","660804","plxqhc69kn8","null","<p style=""border: 5px solid green;"">Correct!</p>","null","","",""
"","","","","","html-keyboard-response","177","2.0.0","661806","plxqhc69kn8","null","<div style=""font-size: 75px;"">+</div>","null","","",""
"","","","","","image-keyboard-response","178","2.0.0","663733","plxqhc69kn8","1925","stimuli/37_100_R.jpg","j","response","j","true"
"","","","","","html-keyboard-response","179","2.0.0","664234","plxqhc69kn8","null","<p style=""border: 5px solid green;"">Correct!</p>","null","","",""
"","","","","","html-keyboard-response","180","2.0.0","665237","plxqhc69kn8","null","<div style=""font-size: 75px;"">+</div>","null","","",""
"","","","","","image-keyboard-response","181","2.0.0","667425","plxqhc69kn8","2185","stimuli/1_0_R.jpg","j","response","j","true"
"","","","","","html-keyboard-response","182","2.0.0","667926","plxqhc69kn8","null","<p style=""border: 5px solid green;"">Correct!</p>","null","","",""
"","","","","","html-keyboard-response","183","2.0.0","668929","plxqhc69kn8","null","<div style=""font-size: 75px;"">+</div>","null","","",""
"","","","","","image-keyboard-response","184","2.0.0","671349","plxqhc69kn8","2418","stimuli/45_50.jpg","f","response","f","true"
"","","","","","html-keyboard-response","185","2.0.0","671851","plxqhc69kn8","null","<p style=""border: 5px solid green;"">Correct!</p>","null","","",""
"","","","","","html-keyboard-response","186","2.0.0","672853","plxqhc69kn8","null","<div style=""font-size: 75px;"">+</div>","null","","",""
"","","","","","image-keyboard-response","187","2.0.0","684690","plxqhc69kn8","11835","stimuli/42_150.jpg","f","response","f","true"
"","","","","","html-keyboard-response","188","2.0.0","685192","plxqhc69kn8","null","<p style=""border: 5px solid green;"">Correct!</p>","null","","",""
"","","","","","html-keyboard-response","189","2.0.0","686194","plxqhc69kn8","null","<div style=""font-size: 75px;"">+</div>","null","","",""
"","","","","","image-keyboard-response","190","2.0.0","690556","plxqhc69kn8","4360","stimuli/11_150.jpg","f","response","f","true"
"","","","","","html-keyboard-response","191","2.0.0","691057","plxqhc69kn8","null","<p style=""border: 5px solid green;"">Correct!</p>","null","","",""
"","","","","","html-keyboard-response","192","2.0.0","692058","plxqhc69kn8","null","<div style=""font-size: 75px;"">+</div>","null","","",""
"","","","","","image-keyboard-response","193","2.0.0","694299","plxqhc69kn8","2238","stimuli/14_150_R.jpg","j","response","j","true"
"","","","","","html-keyboard-response","194","2.0.0","694801","plxqhc69kn8","null","<p style=""border: 5px solid green;"">Correct!</p>","null","","",""
"","","","","","html-keyboard-response","195","2.0.0","695804","plxqhc69kn8","null","<div style=""font-size: 75px;"">+</div>","null","","",""
"","","","","","image-keyboard-response","196","2.0.0","702635","plxqhc69kn8","6829","stimuli/43_50.jpg","f","response","f","true"
"","","","","","html-keyboard-response","197","2.0.0","703137","plxqhc69kn8","null","<p style=""border: 5px solid green;"">Correct!</p>","null","","",""
"","","","","","html-keyboard-response","198","2.0.0","704139","plxqhc69kn8","null","<div style=""font-size: 75px;"">+</div>","null","","",""
"","","","","","image-keyboard-response","199","2.0.0","705371","plxqhc69kn8","1229","stimuli/18_0.jpg","f","response","f","true"
"","","","","","html-keyboard-response","200","2.0.0","705872","plxqhc69kn8","null","<p style=""border: 5px solid green;"">Correct!</p>","null","","",""
"","","","","","html-keyboard-response","201","2.0.0","706875","plxqhc69kn8","null","<div style=""font-size: 75px;"">+</div>","null","","",""
"","","","","","image-keyboard-response","202","2.0.0","710564","plxqhc69kn8","3686","stimuli/6_150.jpg","f","response","f","true"
"","","","","","html-keyboard-response","203","2.0.0","711065","plxqhc69kn8","null","<p style=""border: 5px solid green;"">Correct!</p>","null","","",""
"","","","","","html-keyboard-response","204","2.0.0","712067","plxqhc69kn8","null","<div style=""font-size: 75px;"">+</div>","null","","",""
"","","","","","image-keyboard-response","205","2.0.0","716505","plxqhc69kn8","4435","stimuli/12_50_R.jpg","j","response","j","true"
"","","","","","html-keyboard-response","206","2.0.0","717006","plxqhc69kn8","null","<p style=""border: 5px solid green;"">Correct!</p>","null","","",""
"","","","","","html-keyboard-response","207","2.0.0","718008","plxqhc69kn8","null","<div style=""font-size: 75px;"">+</div>","null","","",""
"","","","","","image-keyboard-response","208","2.0.0","719852","plxqhc69kn8","1843","stimuli/39_0_R.jpg","j","response","j","true"
"","","","","","html-keyboard-response","209","2.0.0","720353","plxqhc69kn8","null","<p style=""border: 5px solid green;"">Correct!</p>","null","","",""
"","","","","","html-keyboard-response","210","2.0.0","721354","plxqhc69kn8","null","<div style=""font-size: 75px;"">+</div>","null","","",""
"","","","","","image-keyboard-response","211","2.0.0","723178","plxqhc69kn8","1823","stimuli/34_0.jpg","f","response","f","true"
"","","","","","html-keyboard-response","212","2.0.0","723680","plxqhc69kn8","null","<p style=""border: 5px solid green;"">Correct!</p>","null","","",""
"","","","","","html-keyboard-response","213","2.0.0","724681","plxqhc69kn8","null","<div style=""font-size: 75px;"">+</div>","null","","",""
"","","","","","image-keyboard-response","214","2.0.0","725934","plxqhc69kn8","1251","stimuli/29_0.jpg","f","response","f","true"
"","","","","","html-keyboard-response","215","2.0.0","726435","plxqhc69kn8","null","<p style=""border: 5px solid green;"">Correct!</p>","null","","",""
"","","","","","html-keyboard-response","216","2.0.0","727437","plxqhc69kn8","null","<div style=""font-size: 75px;"">+</div>","null","","",""
"","","","","","image-keyboard-response","217","2.0.0","730413","plxqhc69kn8","2974","stimuli/46_150_R.jpg","j","response","j","true"
"","","","","","html-keyboard-response","218","2.0.0","730915","plxqhc69kn8","null","<p style=""border: 5px solid green;"">Correct!</p>","null","","",""
"","","","","","html-keyboard-response","219","2.0.0","731916","plxqhc69kn8","null","<div style=""font-size: 75px;"">+</div>","null","","",""
"","","","","","image-keyboard-response","220","2.0.0","734291","plxqhc69kn8","2374","stimuli/18_50.jpg","f","response","f","true"
"","","","","","html-keyboard-response","221","2.0.0","734793","plxqhc69kn8","null","<p style=""border: 5px solid green;"">Correct!</p>","null","","",""
"","","","","","html-keyboard-response","222","2.0.0","735794","plxqhc69kn8","null","<div style=""font-size: 75px;"">+</div>","null","","",""
"","","","","","image-keyboard-response","223","2.0.0","742296","plxqhc69kn8","6501","stimuli/44_0_R.jpg","j","response","j","true"
"","","","","","html-keyboard-response","224","2.0.0","742798","plxqhc69kn8","null","<p style=""border: 5px solid green;"">Correct!</p>","null","","",""
"","","","","","html-keyboard-response","225","2.0.0","743799","plxqhc69kn8","null","<div style=""font-size: 75px;"">+</div>","null","","",""
"","","","","","image-keyboard-response","226","2.0.0","747426","plxqhc69kn8","3626","stimuli/30_150_R.jpg","f","response","j","false"
"","","","","","html-keyboard-response","227","2.0.0","747928","plxqhc69kn8","null","<p style=""border: 5px solid red;"">Incorrect.</p>","null","","",""
"","","","","","html-keyboard-response","228","2.0.0","748930","plxqhc69kn8","null","<div style=""font-size: 75px;"">+</div>","null","","",""
"","","","","","image-keyboard-response","229","2.0.0","751750","plxqhc69kn8","2818","stimuli/45_150.jpg","f","response","f","true"
"","","","","","html-keyboard-response","230","2.0.0","752252","plxqhc69kn8","null","<p style=""border: 5px solid green;"">Correct!</p>","null","","",""
"","","","","","html-keyboard-response","231","2.0.0","753254","plxqhc69kn8","null","<div style=""font-size: 75px;"">+</div>","null","","",""
"","","","","","image-keyboard-response","232","2.0.0","755152","plxqhc69kn8","1895","stimuli/33_0_R.jpg","j","response","j","true"
"","","","","","html-keyboard-response","233","2.0.0","755653","plxqhc69kn8","null","<p style=""border: 5px solid green;"">Correct!</p>","null","","",""
"","","","","","html-keyboard-response","234","2.0.0","756656","plxqhc69kn8","null","<div style=""font-size: 75px;"">+</div>","null","","",""
"","","","","","image-keyboard-response","235","2.0.0","781682","plxqhc69kn8","25023","stimuli/18_150.jpg","j","response","f","false"
"","","","","","html-keyboard-response","236","2.0.0","782183","plxqhc69kn8","null","<p style=""border: 5px solid red;"">Incorrect.</p>","null","","",""
"","","","","","html-keyboard-response","237","2.0.0","783185","plxqhc69kn8","null","<div style=""font-size: 75px;"">+</div>","null","","",""
"","","","","","image-keyboard-response","238","2.0.0","786184","plxqhc69kn8","2997","stimuli/19_150_R.jpg","j","response","j","true"
"","","","","","html-keyboard-response","239","2.0.0","786685","plxqhc69kn8","null","<p style=""border: 5px solid green;"">Correct!</p>","null","","",""
"","","","","","html-keyboard-response","240","2.0.0","787687","plxqhc69kn8","null","<div style=""font-size: 75px;"">+</div>","null","","",""
"","","","","","image-keyboard-response","241","2.0.0","790044","plxqhc69kn8","2354","stimuli/20_100.jpg","f","response","f","true"
"","","","","","html-keyboard-response","242","2.0.0","790545","plxqhc69kn8","null","<p style=""border: 5px solid green;"">Correct!</p>","null","","",""
"","","","","","html-keyboard-response","243","2.0.0","791548","plxqhc69kn8","null","<div style=""font-size: 75px;"">+</div>","null","","",""
"","","","","","image-keyboard-response","244","2.0.0","800497","plxqhc69kn8","8946","stimuli/9_0.jpg","f","response","f","true"
"","","","","","html-keyboard-response","245","2.0.0","800998","plxqhc69kn8","null","<p style=""border: 5px solid green;"">Correct!</p>","null","","",""
"","","","","","html-keyboard-response","246","2.0.0","802000","plxqhc69kn8","null","<div style=""font-size: 75px;"">+</div>","null","","",""
"","","","","","image-keyboard-response","247","2.0.0","809257","plxqhc69kn8","7255","stimuli/21_100_R.jpg","j","response","j","true"
"","","","","","html-keyboard-response","248","2.0.0","809759","plxqhc69kn8","null","<p style=""border: 5px solid green;"">Correct!</p>","null","","",""
"","","","","","html-keyboard-response","249","2.0.0","810761","plxqhc69kn8","null","<div style=""font-size: 75px;"">+</div>","null","","",""
"","","","","","image-keyboard-response","250","2.0.0","813299","plxqhc69kn8","2536","stimuli/44_50_R.jpg","j","response","j","true"
"","","","","","html-keyboard-response","251","2.0.0","813801","plxqhc69kn8","null","<p style=""border: 5px solid green;"">Correct!</p>","null","","",""
"","","","","","html-keyboard-response","252","2.0.0","814804","plxqhc69kn8","null","<div style=""font-size: 75px;"">+</div>","null","","",""
"","","","","","image-keyboard-response","253","2.0.0","817649","plxqhc69kn8","2842","stimuli/26_50_R.jpg","j","response","j","true"
"","","","","","html-keyboard-response","254","2.0.0","818150","plxqhc69kn8","null","<p style=""border: 5px solid green;"">Correct!</p>","null","","",""
"","","","","","html-keyboard-response","255","2.0.0","819153","plxqhc69kn8","null","<div style=""font-size: 75px;"">+</div>","null","","",""
"","","","","","image-keyboard-response","256","2.0.0","821361","plxqhc69kn8","2205","stimuli/45_100_R.jpg","j","response","j","true"
"","","","","","html-keyboard-response","257","2.0.0","821863","plxqhc69kn8","null","<p style=""border: 5px solid green;"">Correct!</p>","null","","",""
"","","","","","html-keyboard-response","258","2.0.0","822865","plxqhc69kn8","null","<div style=""font-size: 75px;"">+</div>","null","","",""
"","","","","","image-keyboard-response","259","2.0.0","828670","plxqhc69kn8","5802","stimuli/37_150_R.jpg","j","response","j","true"
"","","","","","html-keyboard-response","260","2.0.0","829172","plxqhc69kn8","null","<p style=""border: 5px solid green;"">Correct!</p>","null","","",""
"","","","","","html-keyboard-response","261","2.0.0","830174","plxqhc69kn8","null","<div style=""font-size: 75px;"">+</div>","null","","",""
"","","","","","image-keyboard-response","262","2.0.0","843404","plxqhc69kn8","13229","stimuli/36_50_R.jpg","j","response","j","true"
"","","","","","html-keyboard-response","263","2.0.0","843906","plxqhc69kn8","null","<p style=""border: 5px solid green;"">Correct!</p>","null","","",""
"","","","","","html-keyboard-response","264","2.0.0","844908","plxqhc69kn8","null","<div style=""font-size: 75px;"">+</div>","null","","",""
"","","","","","image-keyboard-response","265","2.0.0","848200","plxqhc69kn8","3290","stimuli/43_50_R.jpg","j","response","j","true"
"","","","","","html-keyboard-response","266","2.0.0","848701","plxqhc69kn8","null","<p style=""border: 5px solid green;"">Correct!</p>","null","","",""
"","","","","","html-keyboard-response","267","2.0.0","849703","plxqhc69kn8","null","<div style=""font-size: 75px;"">+</div>","null","","",""
"","","","","","image-keyboard-response","268","2.0.0","855661","plxqhc69kn8","5957","stimuli/19_50_R.jpg","j","response","j","true"
"","","","","","html-keyboard-response","269","2.0.0","856163","plxqhc69kn8","null","<p style=""border: 5px solid green;"">Correct!</p>","null","","",""
"","","","","","html-keyboard-response","270","2.0.0","857166","plxqhc69kn8","null","<div style=""font-size: 75px;"">+</div>","null","","",""
"","","","","","image-keyboard-response","271","2.0.0","863080","plxqhc69kn8","5911","stimuli/21_0_R.jpg","j","response","j","true"
"","","","","","html-keyboard-response","272","2.0.0","863581","plxqhc69kn8","null","<p style=""border: 5px solid green;"">Correct!</p>","null","","",""
"","","","","","html-keyboard-response","273","2.0.0","864583","plxqhc69kn8","null","<div style=""font-size: 75px;"">+</div>","null","","",""
"","","","","","image-keyboard-response","274","2.0.0","866286","plxqhc69kn8","1700","stimuli/22_50.jpg","f","response","f","true"
"","","","","","html-keyboard-response","275","2.0.0","866788","plxqhc69kn8","null","<p style=""border: 5px solid green;"">Correct!</p>","null","","",""
"","","","","","html-keyboard-response","276","2.0.0","867790","plxqhc69kn8","null","<div style=""font-size: 75px;"">+</div>","null","","",""
"","","","","","image-keyboard-response","277","2.0.0","873582","plxqhc69kn8","5788","stimuli/43_150_R.jpg","j","response","j","true"
"","","","","","html-keyboard-response","278","2.0.0","874083","plxqhc69kn8","null","<p style=""border: 5px solid green;"">Correct!</p>","null","","",""
"","","","","","html-keyboard-response","279","2.0.0","875085","plxqhc69kn8","null","<div style=""font-size: 75px;"">+</div>","null","","",""
"","","","","","image-keyboard-response","280","2.0.0","903387","plxqhc69kn8","28299","stimuli/40_50_R.jpg","j","response","j","true"
"","","","","","html-keyboard-response","281","2.0.0","903889","plxqhc69kn8","null","<p style=""border: 5px solid green;"">Correct!</p>","null","","",""
"","","","","","html-keyboard-response","282","2.0.0","904890","plxqhc69kn8","null","<div style=""font-size: 75px;"">+</div>","null","","",""
"","","","","","image-keyboard-response","283","2.0.0","909993","plxqhc69kn8","5100","stimuli/8_100_R.jpg","j","response","j","true"
"","","","","","html-keyboard-response","284","2.0.0","910494","plxqhc69kn8","null","<p style=""border: 5px solid green;"">Correct!</p>","null","","",""
"","","","","","html-keyboard-response","285","2.0.0","911496","plxqhc69kn8","null","<div style=""font-size: 75px;"">+</div>","null","","",""
"","","","","","image-keyboard-response","286","2.0.0","913752","plxqhc69kn8","2254","stimuli/41_50.jpg","f","response","f","true"
"","","","","","html-keyboard-response","287","2.0.0","914253","plxqhc69kn8","null","<p style=""border: 5px solid green;"">Correct!</p>","null","","",""
"","","","","","html-keyboard-response","288","2.0.0","915255","plxqhc69kn8","null","<div style=""font-size: 75px;"">+</div>","null","","",""
"","","","","","image-keyboard-response","289","2.0.0","918817","plxqhc69kn8","3560","stimuli/9_50_R.jpg","j","response","j","true"
"","","","","","html-keyboard-response","290","2.0.0","919318","plxqhc69kn8","null","<p style=""border: 5px solid green;"">Correct!</p>","null","","",""
"","","","","","html-keyboard-response","291","2.0.0","920320","plxqhc69kn8","null","<div style=""font-size: 75px;"">+</div>","null","","",""
"","","","","","image-keyboard-response","292","2.0.0","928896","plxqhc69kn8","8573","stimuli/48_50.jpg","f","response","f","true"
"","","","","","html-keyboard-response","293","2.0.0","929397","plxqhc69kn8","null","<p style=""border: 5px solid green;"">Correct!</p>","null","","",""
"","","","","","html-keyboard-response","294","2.0.0","931479","plxqhc69kn8","2081","<p>Thank you for participating!</p><p>Please press space to answer our survey.</p>"," ","","",""
"","","","","","survey-html-form","295","null","1083030","plxqhc69kn8","151546","","{""response_1"":""No image at all, you only “know” that you are thinking of the object"",""response_2"":""No image at all, you only “know” that you are thinking of the object"",""response_3"":""No image at all, you only “know” that you are thinking of the object"",""response_4"":""No image at all, you only “know” that you are thinking of the object"",""response_5"":""No image at all, you only “know” that you are thinking of the object"",""response_6"":""No image at all, you only “know” that you are thinking of the object"",""response_7"":""No image at all, you only “know” that you are thinking of the object"",""response_8"":""No image at all, you only “know” that you are thinking of the object"",""response_9"":""No image at all, you only “know” that you are thinking of the object"",""response_10"":""No image at all, you only “know” that you are thinking of the object"",""response_11"":""No image at all, you only “know” that you are thinking of the object"",""response_12"":""No image at all, you only “know” that you are thinking of the object"",""response_13"":""No image at all, you only “know” that you are thinking of the object"",""response_14"":""No image at all, you only “know” that you are thinking of the object"",""response_15"":""No image at all, you only “know” that you are thinking of the object"",""response_16"":""No image at all, you only “know” that you are thinking of the object""}","","",""
"","","","","","survey-html-form","296","null","1127417","plxqhc69kn8","44385","","{""age"":""22"",""gender"":""other"",""education"":""some-college"",""handedness"":""right"",""vision"":""corrected"",""technical_difficulties"":""no"",""knowledge_check"":""how we visualize in the mind""}","","",""
