"success","timeout","failed_images","failed_audio","failed_video","trial_type","trial_index","plugin_version","time_elapsed","random_id","rt","stimulus","response","task","correct_response","correct"
"true","false","[]","[]","[]","preload","0","2.0.0","7310","pmzasujfyt4","","","","","",""
"true","","","","","fullscreen","1","2.0.0","9328","pmzasujfyt4","1015","","","","",""
"","","","","","html-keyboard-response","2","2.0.0","11393","pmzasujfyt4","2063","Welcome to the experiment. Press any key to begin."," ","","",""
"","","","","","survey-text","3","2.0.0","14618","pmzasujfyt4","3223","","{""participant_id"":""flamingo""}","","",""
"","","","","","html-keyboard-response","4","2.0.0","15783","pmzasujfyt4","1163","
        <p>Welcome to the experiment.</p>
        <p>In this task, you will see pairs of images.</p>
        <p>Your job is to determine whether the image on the right is a rotated version of the image on the left.</p>
        <p>Press the <strong>F</strong> key if the images are the same.</p>
        <p>Press the <strong>J</strong> key if the images are different.</p>
        <p>Press any key to begin.</p>
    "," ","","",""
"","","","","","html-keyboard-response","5","2.0.0","16786","pmzasujfyt4","null","<div style=""font-size: 75px;"">+</div>","null","","",""
"","","","","","image-keyboard-response","6","2.0.0","18442","pmzasujfyt4","1653","stimuli/28_0.jpg","f","response","f","true"
"","","","","","html-keyboard-response","7","2.0.0","18944","pmzasujfyt4","null","<p style=""border: 5px solid green;"">Correct!</p>","null","","",""
"","","","","","html-keyboard-response","8","2.0.0","19947","pmzasujfyt4","null","<div style=""font-size: 75px;"">+</div>","null","","",""
"","","","","","image-keyboard-response","9","2.0.0","22033","pmzasujfyt4","2085","stimuli/9_100_R.jpg","f","response","j","false"
"","","","","","html-keyboard-response","10","2.0.0","22535","pmzasujfyt4","null","<p style=""border: 5px solid red;"">Incorrect.</p>","null","","",""
"","","","","","html-keyboard-response","11","2.0.0","23539","pmzasujfyt4","null","<div style=""font-size: 75px;"">+</div>","null","","",""
"","","","","","image-keyboard-response","12","2.0.0","25740","pmzasujfyt4","2200","stimuli/48_100.jpg","f","response","f","true"
"","","","","","html-keyboard-response","13","2.0.0","26242","pmzasujfyt4","null","<p style=""border: 5px solid green;"">Correct!</p>","null","","",""
"","","","","","html-keyboard-response","14","2.0.0","27245","pmzasujfyt4","null","<div style=""font-size: 75px;"">+</div>","null","","",""
"","","","","","image-keyboard-response","15","2.0.0","29938","pmzasujfyt4","2692","stimuli/3_150.jpg","f","response","f","true"
"","","","","","html-keyboard-response","16","2.0.0","30440","pmzasujfyt4","null","<p style=""border: 5px solid green;"">Correct!</p>","null","","",""
"","","","","","html-keyboard-response","17","2.0.0","31443","pmzasujfyt4","null","<div style=""font-size: 75px;"">+</div>","null","","",""
"","","","","","image-keyboard-response","18","2.0.0","32468","pmzasujfyt4","1024","stimuli/47_0.jpg","f","response","f","true"
"","","","","","html-keyboard-response","19","2.0.0","32969","pmzasujfyt4","null","<p style=""border: 5px solid green;"">Correct!</p>","null","","",""
"","","","","","html-keyboard-response","20","2.0.0","33973","pmzasujfyt4","null","<div style=""font-size: 75px;"">+</div>","null","","",""
"","","","","","image-keyboard-response","21","2.0.0","35998","pmzasujfyt4","2023","stimuli/33_150.jpg","j","response","f","false"
"","","","","","html-keyboard-response","22","2.0.0","36499","pmzasujfyt4","null","<p style=""border: 5px solid red;"">Incorrect.</p>","null","","",""
"","","","","","html-keyboard-response","23","2.0.0","37503","pmzasujfyt4","null","<div style=""font-size: 75px;"">+</div>","null","","",""
"","","","","","image-keyboard-response","24","2.0.0","38893","pmzasujfyt4","1389","stimuli/45_50_R.jpg","j","response","j","true"
"","","","","","html-keyboard-response","25","2.0.0","39395","pmzasujfyt4","null","<p style=""border: 5px solid green;"">Correct!</p>","null","","",""
"","","","","","html-keyboard-response","26","2.0.0","40397","pmzasujfyt4","null","<div style=""font-size: 75px;"">+</div>","null","","",""
"","","","","","image-keyboard-response","27","2.0.0","42477","pmzasujfyt4","2079","stimuli/17_50.jpg","f","response","f","true"
"","","","","","html-keyboard-response","28","2.0.0","42979","pmzasujfyt4","null","<p style=""border: 5px solid green;"">Correct!</p>","null","","",""
"","","","","","html-keyboard-response","29","2.0.0","43981","pmzasujfyt4","null","<div style=""font-size: 75px;"">+</div>","null","","",""
"","","","","","image-keyboard-response","30","2.0.0","46627","pmzasujfyt4","2644","stimuli/31_100.jpg","j","response","f","false"
"","","","","","html-keyboard-response","31","2.0.0","47128","pmzasujfyt4","null","<p style=""border: 5px solid red;"">Incorrect.</p>","null","","",""
"","","","","","html-keyboard-response","32","2.0.0","48130","pmzasujfyt4","null","<div style=""font-size: 75px;"">+</div>","null","","",""
"","","","","","image-keyboard-response","33","2.0.0","49595","pmzasujfyt4","1464","stimuli/9_0_R.jpg","j","response","j","true"
"","","","","","html-keyboard-response","34","2.0.0","50097","pmzasujfyt4","null","<p style=""border: 5px solid green;"">Correct!</p>","null","","",""
"","","","","","html-keyboard-response","35","2.0.0","51100","pmzasujfyt4","null","<div style=""font-size: 75px;"">+</div>","null","","",""
"","","","","","image-keyboard-response","36","2.0.0","52790","pmzasujfyt4","1688","stimuli/47_150.jpg","f","response","f","true"
"","","","","","html-keyboard-response","37","2.0.0","53291","pmzasujfyt4","null","<p style=""border: 5px solid green;"">Correct!</p>","null","","",""
"","","","","","html-keyboard-response","38","2.0.0","54293","pmzasujfyt4","null","<div style=""font-size: 75px;"">+</div>","null","","",""
"","","","","","image-keyboard-response","39","2.0.0","55627","pmzasujfyt4","1332","stimuli/44_150.jpg","f","response","f","true"
"","","","","","html-keyboard-response","40","2.0.0","56129","pmzasujfyt4","null","<p style=""border: 5px solid green;"">Correct!</p>","null","","",""
"","","","","","html-keyboard-response","41","2.0.0","57130","pmzasujfyt4","null","<div style=""font-size: 75px;"">+</div>","null","","",""
"","","","","","image-keyboard-response","42","2.0.0","58873","pmzasujfyt4","1742","stimuli/31_100_R.jpg","j","response","j","true"
"","","","","","html-keyboard-response","43","2.0.0","59374","pmzasujfyt4","null","<p style=""border: 5px solid green;"">Correct!</p>","null","","",""
"","","","","","html-keyboard-response","44","2.0.0","60377","pmzasujfyt4","null","<div style=""font-size: 75px;"">+</div>","null","","",""
"","","","","","image-keyboard-response","45","2.0.0","61308","pmzasujfyt4","930","stimuli/6_0.jpg","f","response","f","true"
"","","","","","html-keyboard-response","46","2.0.0","61809","pmzasujfyt4","null","<p style=""border: 5px solid green;"">Correct!</p>","null","","",""
"","","","","","html-keyboard-response","47","2.0.0","62812","pmzasujfyt4","null","<div style=""font-size: 75px;"">+</div>","null","","",""
"","","","","","image-keyboard-response","48","2.0.0","63595","pmzasujfyt4","782","stimuli/41_0_R.jpg","f","response","j","false"
"","","","","","html-keyboard-response","49","2.0.0","64097","pmzasujfyt4","null","<p style=""border: 5px solid red;"">Incorrect.</p>","null","","",""
"","","","","","html-keyboard-response","50","2.0.0","65100","pmzasujfyt4","null","<div style=""font-size: 75px;"">+</div>","null","","",""
"","","","","","image-keyboard-response","51","2.0.0","67783","pmzasujfyt4","2682","stimuli/34_100.jpg","f","response","f","true"
"","","","","","html-keyboard-response","52","2.0.0","68284","pmzasujfyt4","null","<p style=""border: 5px solid green;"">Correct!</p>","null","","",""
"","","","","","html-keyboard-response","53","2.0.0","69288","pmzasujfyt4","null","<div style=""font-size: 75px;"">+</div>","null","","",""
"","","","","","image-keyboard-response","54","2.0.0","73454","pmzasujfyt4","4165","stimuli/27_150.jpg","j","response","f","false"
"","","","","","html-keyboard-response","55","2.0.0","73956","pmzasujfyt4","null","<p style=""border: 5px solid red;"">Incorrect.</p>","null","","",""
"","","","","","html-keyboard-response","56","2.0.0","74958","pmzasujfyt4","null","<div style=""font-size: 75px;"">+</div>","null","","",""
"","","","","","image-keyboard-response","57","2.0.0","76875","pmzasujfyt4","1916","stimuli/25_150_R.jpg","f","response","j","false"
"","","","","","html-keyboard-response","58","2.0.0","77377","pmzasujfyt4","null","<p style=""border: 5px solid red;"">Incorrect.</p>","null","","",""
"","","","","","html-keyboard-response","59","2.0.0","78380","pmzasujfyt4","null","<div style=""font-size: 75px;"">+</div>","null","","",""
"","","","","","image-keyboard-response","60","2.0.0","80385","pmzasujfyt4","2004","stimuli/21_150_R.jpg","j","response","j","true"
"","","","","","html-keyboard-response","61","2.0.0","80887","pmzasujfyt4","null","<p style=""border: 5px solid green;"">Correct!</p>","null","","",""
"","","","","","html-keyboard-response","62","2.0.0","81888","pmzasujfyt4","null","<div style=""font-size: 75px;"">+</div>","null","","",""
"","","","","","image-keyboard-response","63","2.0.0","83584","pmzasujfyt4","1695","stimuli/14_150_R.jpg","j","response","j","true"
"","","","","","html-keyboard-response","64","2.0.0","84085","pmzasujfyt4","null","<p style=""border: 5px solid green;"">Correct!</p>","null","","",""
"","","","","","html-keyboard-response","65","2.0.0","85088","pmzasujfyt4","null","<div style=""font-size: 75px;"">+</div>","null","","",""
"","","","","","image-keyboard-response","66","2.0.0","86756","pmzasujfyt4","1667","stimuli/24_150.jpg","f","response","f","true"
"","","","","","html-keyboard-response","67","2.0.0","87258","pmzasujfyt4","null","<p style=""border: 5px solid green;"">Correct!</p>","null","","",""
"","","","","","html-keyboard-response","68","2.0.0","88261","pmzasujfyt4","null","<div style=""font-size: 75px;"">+</div>","null","","",""
"","","","","","image-keyboard-response","69","2.0.0","90159","pmzasujfyt4","1897","stimuli/5_100_R.jpg","j","response","j","true"
"","","","","","html-keyboard-response","70","2.0.0","90660","pmzasujfyt4","null","<p style=""border: 5px solid green;"">Correct!</p>","null","","",""
"","","","","","html-keyboard-response","71","2.0.0","91663","pmzasujfyt4","null","<div style=""font-size: 75px;"">+</div>","null","","",""
"","","","","","image-keyboard-response","72","2.0.0","93583","pmzasujfyt4","1918","stimuli/39_100_R.jpg","j","response","j","true"
"","","","","","html-keyboard-response","73","2.0.0","94085","pmzasujfyt4","null","<p style=""border: 5px solid green;"">Correct!</p>","null","","",""
"","","","","","html-keyboard-response","74","2.0.0","95086","pmzasujfyt4","null","<div style=""font-size: 75px;"">+</div>","null","","",""
"","","","","","image-keyboard-response","75","2.0.0","96351","pmzasujfyt4","1264","stimuli/40_50_R.jpg","j","response","j","true"
"","","","","","html-keyboard-response","76","2.0.0","96853","pmzasujfyt4","null","<p style=""border: 5px solid green;"">Correct!</p>","null","","",""
"","","","","","html-keyboard-response","77","2.0.0","97855","pmzasujfyt4","null","<div style=""font-size: 75px;"">+</div>","null","","",""
"","","","","","image-keyboard-response","78","2.0.0","99051","pmzasujfyt4","1194","stimuli/16_0.jpg","f","response","f","true"
"","","","","","html-keyboard-response","79","2.0.0","99553","pmzasujfyt4","null","<p style=""border: 5px solid green;"">Correct!</p>","null","","",""
"","","","","","html-keyboard-response","80","2.0.0","100555","pmzasujfyt4","null","<div style=""font-size: 75px;"">+</div>","null","","",""
"","","","","","image-keyboard-response","81","2.0.0","101700","pmzasujfyt4","1143","stimuli/2_50_R.jpg","j","response","j","true"
"","","","","","html-keyboard-response","82","2.0.0","102201","pmzasujfyt4","null","<p style=""border: 5px solid green;"">Correct!</p>","null","","",""
"","","","","","html-keyboard-response","83","2.0.0","103204","pmzasujfyt4","null","<div style=""font-size: 75px;"">+</div>","null","","",""
"","","","","","image-keyboard-response","84","2.0.0","104568","pmzasujfyt4","1363","stimuli/44_50.jpg","f","response","f","true"
"","","","","","html-keyboard-response","85","2.0.0","105070","pmzasujfyt4","null","<p style=""border: 5px solid green;"">Correct!</p>","null","","",""
"","","","","","html-keyboard-response","86","2.0.0","106073","pmzasujfyt4","null","<div style=""font-size: 75px;"">+</div>","null","","",""
"","","","","","image-keyboard-response","87","2.0.0","107186","pmzasujfyt4","1112","stimuli/45_150.jpg","j","response","f","false"
"","","","","","html-keyboard-response","88","2.0.0","107688","pmzasujfyt4","null","<p style=""border: 5px solid red;"">Incorrect.</p>","null","","",""
"","","","","","html-keyboard-response","89","2.0.0","108690","pmzasujfyt4","null","<div style=""font-size: 75px;"">+</div>","null","","",""
"","","","","","image-keyboard-response","90","2.0.0","109891","pmzasujfyt4","1200","stimuli/45_0_R.jpg","j","response","j","true"
"","","","","","html-keyboard-response","91","2.0.0","110393","pmzasujfyt4","null","<p style=""border: 5px solid green;"">Correct!</p>","null","","",""
"","","","","","html-keyboard-response","92","2.0.0","111395","pmzasujfyt4","null","<div style=""font-size: 75px;"">+</div>","null","","",""
"","","","","","image-keyboard-response","93","2.0.0","112374","pmzasujfyt4","978","stimuli/33_0.jpg","f","response","f","true"
"","","","","","html-keyboard-response","94","2.0.0","112876","pmzasujfyt4","null","<p style=""border: 5px solid green;"">Correct!</p>","null","","",""
"","","","","","html-keyboard-response","95","2.0.0","113879","pmzasujfyt4","null","<div style=""font-size: 75px;"">+</div>","null","","",""
"","","","","","image-keyboard-response","96","2.0.0","115310","pmzasujfyt4","1429","stimuli/28_150_R.jpg","j","response","j","true"
"","","","","","html-keyboard-response","97","2.0.0","115811","pmzasujfyt4","null","<p style=""border: 5px solid green;"">Correct!</p>","null","","",""
"","","","","","html-keyboard-response","98","2.0.0","116813","pmzasujfyt4","null","<div style=""font-size: 75px;"">+</div>","null","","",""
"","","","","","image-keyboard-response","99","2.0.0","120020","pmzasujfyt4","3206","stimuli/41_150_R.jpg","j","response","j","true"
"","","","","","html-keyboard-response","100","2.0.0","120521","pmzasujfyt4","null","<p style=""border: 5px solid green;"">Correct!</p>","null","","",""
"","","","","","html-keyboard-response","101","2.0.0","121524","pmzasujfyt4","null","<div style=""font-size: 75px;"">+</div>","null","","",""
"","","","","","image-keyboard-response","102","2.0.0","122852","pmzasujfyt4","1327","stimuli/46_50.jpg","f","response","f","true"
"","","","","","html-keyboard-response","103","2.0.0","123353","pmzasujfyt4","null","<p style=""border: 5px solid green;"">Correct!</p>","null","","",""
"","","","","","html-keyboard-response","104","2.0.0","124356","pmzasujfyt4","null","<div style=""font-size: 75px;"">+</div>","null","","",""
"","","","","","image-keyboard-response","105","2.0.0","125497","pmzasujfyt4","1140","stimuli/22_100.jpg","f","response","f","true"
"","","","","","html-keyboard-response","106","2.0.0","125999","pmzasujfyt4","null","<p style=""border: 5px solid green;"">Correct!</p>","null","","",""
"","","","","","html-keyboard-response","107","2.0.0","127001","pmzasujfyt4","null","<div style=""font-size: 75px;"">+</div>","null","","",""
"","","","","","image-keyboard-response","108","2.0.0","127837","pmzasujfyt4","834","stimuli/45_0.jpg","f","response","f","true"
"","","","","","html-keyboard-response","109","2.0.0","128339","pmzasujfyt4","null","<p style=""border: 5px solid green;"">Correct!</p>","null","","",""
"","","","","","html-keyboard-response","110","2.0.0","129341","pmzasujfyt4","null","<div style=""font-size: 75px;"">+</div>","null","","",""
"","","","","","image-keyboard-response","111","2.0.0","130583","pmzasujfyt4","1240","stimuli/8_50.jpg","f","response","f","true"
"","","","","","html-keyboard-response","112","2.0.0","131084","pmzasujfyt4","null","<p style=""border: 5px solid green;"">Correct!</p>","null","","",""
"","","","","","html-keyboard-response","113","2.0.0","132086","pmzasujfyt4","null","<div style=""font-size: 75px;"">+</div>","null","","",""
"","","","","","image-keyboard-response","114","2.0.0","133143","pmzasujfyt4","1056","stimuli/8_50_R.jpg","j","response","j","true"
"","","","","","html-keyboard-response","115","2.0.0","133645","pmzasujfyt4","null","<p style=""border: 5px solid green;"">Correct!</p>","null","","",""
"","","","","","html-keyboard-response","116","2.0.0","134647","pmzasujfyt4","null","<div style=""font-size: 75px;"">+</div>","null","","",""
"","","","","","image-keyboard-response","117","2.0.0","135990","pmzasujfyt4","1341","stimuli/7_50.jpg","j","response","f","false"
"","","","","","html-keyboard-response","118","2.0.0","136492","pmzasujfyt4","null","<p style=""border: 5px solid red;"">Incorrect.</p>","null","","",""
"","","","","","html-keyboard-response","119","2.0.0","137495","pmzasujfyt4","null","<div style=""font-size: 75px;"">+</div>","null","","",""
"","","","","","image-keyboard-response","120","2.0.0","138831","pmzasujfyt4","1334","stimuli/44_50_R.jpg","j","response","j","true"
"","","","","","html-keyboard-response","121","2.0.0","139333","pmzasujfyt4","null","<p style=""border: 5px solid green;"">Correct!</p>","null","","",""
"","","","","","html-keyboard-response","122","2.0.0","140335","pmzasujfyt4","null","<div style=""font-size: 75px;"">+</div>","null","","",""
"","","","","","image-keyboard-response","123","2.0.0","142356","pmzasujfyt4","2020","stimuli/4_150.jpg","f","response","f","true"
"","","","","","html-keyboard-response","124","2.0.0","142858","pmzasujfyt4","null","<p style=""border: 5px solid green;"">Correct!</p>","null","","",""
"","","","","","html-keyboard-response","125","2.0.0","143861","pmzasujfyt4","null","<div style=""font-size: 75px;"">+</div>","null","","",""
"","","","","","image-keyboard-response","126","2.0.0","146285","pmzasujfyt4","2422","stimuli/5_50_R.jpg","j","response","j","true"
"","","","","","html-keyboard-response","127","2.0.0","146786","pmzasujfyt4","null","<p style=""border: 5px solid green;"">Correct!</p>","null","","",""
"","","","","","html-keyboard-response","128","2.0.0","147788","pmzasujfyt4","null","<div style=""font-size: 75px;"">+</div>","null","","",""
"","","","","","image-keyboard-response","129","2.0.0","148561","pmzasujfyt4","772","stimuli/12_50.jpg","f","response","f","true"
"","","","","","html-keyboard-response","130","2.0.0","149063","pmzasujfyt4","null","<p style=""border: 5px solid green;"">Correct!</p>","null","","",""
"","","","","","html-keyboard-response","131","2.0.0","150064","pmzasujfyt4","null","<div style=""font-size: 75px;"">+</div>","null","","",""
"","","","","","image-keyboard-response","132","2.0.0","151018","pmzasujfyt4","953","stimuli/25_0_R.jpg","f","response","j","false"
"","","","","","html-keyboard-response","133","2.0.0","151520","pmzasujfyt4","null","<p style=""border: 5px solid red;"">Incorrect.</p>","null","","",""
"","","","","","html-keyboard-response","134","2.0.0","152523","pmzasujfyt4","null","<div style=""font-size: 75px;"">+</div>","null","","",""
"","","","","","image-keyboard-response","135","2.0.0","153624","pmzasujfyt4","1101","stimuli/2_100.jpg","f","response","f","true"
"","","","","","html-keyboard-response","136","2.0.0","154125","pmzasujfyt4","null","<p style=""border: 5px solid green;"">Correct!</p>","null","","",""
"","","","","","html-keyboard-response","137","2.0.0","155127","pmzasujfyt4","null","<div style=""font-size: 75px;"">+</div>","null","","",""
"","","","","","image-keyboard-response","138","2.0.0","157542","pmzasujfyt4","2413","stimuli/43_100_R.jpg","j","response","j","true"
"","","","","","html-keyboard-response","139","2.0.0","158044","pmzasujfyt4","null","<p style=""border: 5px solid green;"">Correct!</p>","null","","",""
"","","","","","html-keyboard-response","140","2.0.0","159052","pmzasujfyt4","null","<div style=""font-size: 75px;"">+</div>","null","","",""
"","","","","","image-keyboard-response","141","2.0.0","161113","pmzasujfyt4","2061","stimuli/6_150.jpg","f","response","f","true"
"","","","","","html-keyboard-response","142","2.0.0","161615","pmzasujfyt4","null","<p style=""border: 5px solid green;"">Correct!</p>","null","","",""
"","","","","","html-keyboard-response","143","2.0.0","162617","pmzasujfyt4","null","<div style=""font-size: 75px;"">+</div>","null","","",""
"","","","","","image-keyboard-response","144","2.0.0","164324","pmzasujfyt4","1706","stimuli/34_50_R.jpg","j","response","j","true"
"","","","","","html-keyboard-response","145","2.0.0","164826","pmzasujfyt4","null","<p style=""border: 5px solid green;"">Correct!</p>","null","","",""
"","","","","","html-keyboard-response","146","2.0.0","165828","pmzasujfyt4","null","<div style=""font-size: 75px;"">+</div>","null","","",""
"","","","","","image-keyboard-response","147","2.0.0","169596","pmzasujfyt4","3767","stimuli/44_100.jpg","j","response","f","false"
"","","","","","html-keyboard-response","148","2.0.0","170098","pmzasujfyt4","null","<p style=""border: 5px solid red;"">Incorrect.</p>","null","","",""
"","","","","","html-keyboard-response","149","2.0.0","200102","pmzasujfyt4","null","<p> Take a break! Experiment continues in 30 seconds . </p>","null","","",""
"","","","","","html-keyboard-response","150","2.0.0","201105","pmzasujfyt4","null","<div style=""font-size: 75px;"">+</div>","null","","",""
"","","","","","image-keyboard-response","151","2.0.0","204062","pmzasujfyt4","2955","stimuli/7_150_R.jpg","j","response","j","true"
"","","","","","html-keyboard-response","152","2.0.0","204563","pmzasujfyt4","null","<p style=""border: 5px solid green;"">Correct!</p>","null","","",""
"","","","","","html-keyboard-response","153","2.0.0","205565","pmzasujfyt4","null","<div style=""font-size: 75px;"">+</div>","null","","",""
"","","","","","image-keyboard-response","154","2.0.0","206787","pmzasujfyt4","1221","stimuli/29_0_R.jpg","j","response","j","true"
"","","","","","html-keyboard-response","155","2.0.0","207289","pmzasujfyt4","null","<p style=""border: 5px solid green;"">Correct!</p>","null","","",""
"","","","","","html-keyboard-response","156","2.0.0","208292","pmzasujfyt4","null","<div style=""font-size: 75px;"">+</div>","null","","",""
"","","","","","image-keyboard-response","157","2.0.0","210724","pmzasujfyt4","2431","stimuli/6_0_R.jpg","j","response","j","true"
"","","","","","html-keyboard-response","158","2.0.0","211227","pmzasujfyt4","null","<p style=""border: 5px solid green;"">Correct!</p>","null","","",""
"","","","","","html-keyboard-response","159","2.0.0","212229","pmzasujfyt4","null","<div style=""font-size: 75px;"">+</div>","null","","",""
"","","","","","image-keyboard-response","160","2.0.0","213620","pmzasujfyt4","1389","stimuli/38_50.jpg","f","response","f","true"
"","","","","","html-keyboard-response","161","2.0.0","214121","pmzasujfyt4","null","<p style=""border: 5px solid green;"">Correct!</p>","null","","",""
"","","","","","html-keyboard-response","162","2.0.0","215124","pmzasujfyt4","null","<div style=""font-size: 75px;"">+</div>","null","","",""
"","","","","","image-keyboard-response","163","2.0.0","215952","pmzasujfyt4","827","stimuli/15_0.jpg","f","response","f","true"
"","","","","","html-keyboard-response","164","2.0.0","216454","pmzasujfyt4","null","<p style=""border: 5px solid green;"">Correct!</p>","null","","",""
"","","","","","html-keyboard-response","165","2.0.0","217458","pmzasujfyt4","null","<div style=""font-size: 75px;"">+</div>","null","","",""
"","","","","","image-keyboard-response","166","2.0.0","218633","pmzasujfyt4","1174","stimuli/12_150_R.jpg","j","response","j","true"
"","","","","","html-keyboard-response","167","2.0.0","219135","pmzasujfyt4","null","<p style=""border: 5px solid green;"">Correct!</p>","null","","",""
"","","","","","html-keyboard-response","168","2.0.0","220137","pmzasujfyt4","null","<div style=""font-size: 75px;"">+</div>","null","","",""
"","","","","","image-keyboard-response","169","2.0.0","221078","pmzasujfyt4","940","stimuli/48_150.jpg","j","response","f","false"
"","","","","","html-keyboard-response","170","2.0.0","221579","pmzasujfyt4","null","<p style=""border: 5px solid red;"">Incorrect.</p>","null","","",""
"","","","","","html-keyboard-response","171","2.0.0","222583","pmzasujfyt4","null","<div style=""font-size: 75px;"">+</div>","null","","",""
"","","","","","image-keyboard-response","172","2.0.0","223521","pmzasujfyt4","937","stimuli/14_50.jpg","f","response","f","true"
"","","","","","html-keyboard-response","173","2.0.0","224023","pmzasujfyt4","null","<p style=""border: 5px solid green;"">Correct!</p>","null","","",""
"","","","","","html-keyboard-response","174","2.0.0","225026","pmzasujfyt4","null","<div style=""font-size: 75px;"">+</div>","null","","",""
"","","","","","image-keyboard-response","175","2.0.0","225796","pmzasujfyt4","768","stimuli/31_0.jpg","f","response","f","true"
"","","","","","html-keyboard-response","176","2.0.0","226297","pmzasujfyt4","null","<p style=""border: 5px solid green;"">Correct!</p>","null","","",""
"","","","","","html-keyboard-response","177","2.0.0","227299","pmzasujfyt4","null","<div style=""font-size: 75px;"">+</div>","null","","",""
"","","","","","image-keyboard-response","178","2.0.0","228097","pmzasujfyt4","797","stimuli/38_150.jpg","j","response","f","false"
"","","","","","html-keyboard-response","179","2.0.0","228599","pmzasujfyt4","null","<p style=""border: 5px solid red;"">Incorrect.</p>","null","","",""
"","","","","","html-keyboard-response","180","2.0.0","229601","pmzasujfyt4","null","<div style=""font-size: 75px;"">+</div>","null","","",""
"","","","","","image-keyboard-response","181","2.0.0","230471","pmzasujfyt4","869","stimuli/32_100_R.jpg","j","response","j","true"
"","","","","","html-keyboard-response","182","2.0.0","230973","pmzasujfyt4","null","<p style=""border: 5px solid green;"">Correct!</p>","null","","",""
"","","","","","html-keyboard-response","183","2.0.0","231976","pmzasujfyt4","null","<div style=""font-size: 75px;"">+</div>","null","","",""
"","","","","","image-keyboard-response","184","2.0.0","235740","pmzasujfyt4","3763","stimuli/47_150_R.jpg","j","response","j","true"
"","","","","","html-keyboard-response","185","2.0.0","236241","pmzasujfyt4","null","<p style=""border: 5px solid green;"">Correct!</p>","null","","",""
"","","","","","html-keyboard-response","186","2.0.0","237245","pmzasujfyt4","null","<div style=""font-size: 75px;"">+</div>","null","","",""
"","","","","","image-keyboard-response","187","2.0.0","238037","pmzasujfyt4","792","stimuli/13_0.jpg","f","response","f","true"
"","","","","","html-keyboard-response","188","2.0.0","238539","pmzasujfyt4","null","<p style=""border: 5px solid green;"">Correct!</p>","null","","",""
"","","","","","html-keyboard-response","189","2.0.0","239541","pmzasujfyt4","null","<div style=""font-size: 75px;"">+</div>","null","","",""
"","","","","","image-keyboard-response","190","2.0.0","240908","pmzasujfyt4","1366","stimuli/4_50_R.jpg","j","response","j","true"
"","","","","","html-keyboard-response","191","2.0.0","241411","pmzasujfyt4","null","<p style=""border: 5px solid green;"">Correct!</p>","null","","",""
"","","","","","html-keyboard-response","192","2.0.0","242413","pmzasujfyt4","null","<div style=""font-size: 75px;"">+</div>","null","","",""
"","","","","","image-keyboard-response","193","2.0.0","244567","pmzasujfyt4","2153","stimuli/13_100_R.jpg","j","response","j","true"
"","","","","","html-keyboard-response","194","2.0.0","245069","pmzasujfyt4","null","<p style=""border: 5px solid green;"">Correct!</p>","null","","",""
"","","","","","html-keyboard-response","195","2.0.0","246072","pmzasujfyt4","null","<div style=""font-size: 75px;"">+</div>","null","","",""
"","","","","","image-keyboard-response","196","2.0.0","247276","pmzasujfyt4","1203","stimuli/3_50.jpg","f","response","f","true"
"","","","","","html-keyboard-response","197","2.0.0","247778","pmzasujfyt4","null","<p style=""border: 5px solid green;"">Correct!</p>","null","","",""
"","","","","","html-keyboard-response","198","2.0.0","248781","pmzasujfyt4","null","<div style=""font-size: 75px;"">+</div>","null","","",""
"","","","","","image-keyboard-response","199","2.0.0","251000","pmzasujfyt4","2218","stimuli/11_100.jpg","j","response","f","false"
"","","","","","html-keyboard-response","200","2.0.0","251502","pmzasujfyt4","null","<p style=""border: 5px solid red;"">Incorrect.</p>","null","","",""
"","","","","","html-keyboard-response","201","2.0.0","252504","pmzasujfyt4","null","<div style=""font-size: 75px;"">+</div>","null","","",""
"","","","","","image-keyboard-response","202","2.0.0","253728","pmzasujfyt4","1222","stimuli/16_100.jpg","f","response","f","true"
"","","","","","html-keyboard-response","203","2.0.0","254230","pmzasujfyt4","null","<p style=""border: 5px solid green;"">Correct!</p>","null","","",""
"","","","","","html-keyboard-response","204","2.0.0","255232","pmzasujfyt4","null","<div style=""font-size: 75px;"">+</div>","null","","",""
"","","","","","image-keyboard-response","205","2.0.0","256810","pmzasujfyt4","1576","stimuli/6_100.jpg","f","response","f","true"
"","","","","","html-keyboard-response","206","2.0.0","257311","pmzasujfyt4","null","<p style=""border: 5px solid green;"">Correct!</p>","null","","",""
"","","","","","html-keyboard-response","207","2.0.0","258314","pmzasujfyt4","null","<div style=""font-size: 75px;"">+</div>","null","","",""
"","","","","","image-keyboard-response","208","2.0.0","259418","pmzasujfyt4","1103","stimuli/44_0.jpg","f","response","f","true"
"","","","","","html-keyboard-response","209","2.0.0","259920","pmzasujfyt4","null","<p style=""border: 5px solid green;"">Correct!</p>","null","","",""
"","","","","","html-keyboard-response","210","2.0.0","260922","pmzasujfyt4","null","<div style=""font-size: 75px;"">+</div>","null","","",""
"","","","","","image-keyboard-response","211","2.0.0","262260","pmzasujfyt4","1337","stimuli/2_100_R.jpg","j","response","j","true"
"","","","","","html-keyboard-response","212","2.0.0","262760","pmzasujfyt4","null","<p style=""border: 5px solid green;"">Correct!</p>","null","","",""
"","","","","","html-keyboard-response","213","2.0.0","263762","pmzasujfyt4","null","<div style=""font-size: 75px;"">+</div>","null","","",""
"","","","","","image-keyboard-response","214","2.0.0","264652","pmzasujfyt4","889","stimuli/24_50_R.jpg","f","response","j","false"
"","","","","","html-keyboard-response","215","2.0.0","265154","pmzasujfyt4","null","<p style=""border: 5px solid red;"">Incorrect.</p>","null","","",""
"","","","","","html-keyboard-response","216","2.0.0","266156","pmzasujfyt4","null","<div style=""font-size: 75px;"">+</div>","null","","",""
"","","","","","image-keyboard-response","217","2.0.0","267341","pmzasujfyt4","1184","stimuli/37_0_R.jpg","j","response","j","true"
"","","","","","html-keyboard-response","218","2.0.0","267842","pmzasujfyt4","null","<p style=""border: 5px solid green;"">Correct!</p>","null","","",""
"","","","","","html-keyboard-response","219","2.0.0","268844","pmzasujfyt4","null","<div style=""font-size: 75px;"">+</div>","null","","",""
"","","","","","image-keyboard-response","220","2.0.0","272428","pmzasujfyt4","3582","stimuli/34_150_R.jpg","j","response","j","true"
"","","","","","html-keyboard-response","221","2.0.0","272930","pmzasujfyt4","null","<p style=""border: 5px solid green;"">Correct!</p>","null","","",""
"","","","","","html-keyboard-response","222","2.0.0","273932","pmzasujfyt4","null","<div style=""font-size: 75px;"">+</div>","null","","",""
"","","","","","image-keyboard-response","223","2.0.0","276550","pmzasujfyt4","2616","stimuli/1_50_R.jpg","f","response","j","false"
"","","","","","html-keyboard-response","224","2.0.0","277051","pmzasujfyt4","null","<p style=""border: 5px solid red;"">Incorrect.</p>","null","","",""
"","","","","","html-keyboard-response","225","2.0.0","278054","pmzasujfyt4","null","<div style=""font-size: 75px;"">+</div>","null","","",""
"","","","","","image-keyboard-response","226","2.0.0","278759","pmzasujfyt4","704","stimuli/35_0_R.jpg","j","response","j","true"
"","","","","","html-keyboard-response","227","2.0.0","279261","pmzasujfyt4","null","<p style=""border: 5px solid green;"">Correct!</p>","null","","",""
"","","","","","html-keyboard-response","228","2.0.0","280264","pmzasujfyt4","null","<div style=""font-size: 75px;"">+</div>","null","","",""
"","","","","","image-keyboard-response","229","2.0.0","281298","pmzasujfyt4","1032","stimuli/17_50_R.jpg","j","response","j","true"
"","","","","","html-keyboard-response","230","2.0.0","281799","pmzasujfyt4","null","<p style=""border: 5px solid green;"">Correct!</p>","null","","",""
"","","","","","html-keyboard-response","231","2.0.0","282803","pmzasujfyt4","null","<div style=""font-size: 75px;"">+</div>","null","","",""
"","","","","","image-keyboard-response","232","2.0.0","283629","pmzasujfyt4","825","stimuli/42_150_R.jpg","f","response","j","false"
"","","","","","html-keyboard-response","233","2.0.0","284132","pmzasujfyt4","null","<p style=""border: 5px solid red;"">Incorrect.</p>","null","","",""
"","","","","","html-keyboard-response","234","2.0.0","285134","pmzasujfyt4","null","<div style=""font-size: 75px;"">+</div>","null","","",""
"","","","","","image-keyboard-response","235","2.0.0","286632","pmzasujfyt4","1497","stimuli/7_100.jpg","j","response","f","false"
"","","","","","html-keyboard-response","236","2.0.0","287134","pmzasujfyt4","null","<p style=""border: 5px solid red;"">Incorrect.</p>","null","","",""
"","","","","","html-keyboard-response","237","2.0.0","288137","pmzasujfyt4","null","<div style=""font-size: 75px;"">+</div>","null","","",""
"","","","","","image-keyboard-response","238","2.0.0","288995","pmzasujfyt4","857","stimuli/27_0.jpg","f","response","f","true"
"","","","","","html-keyboard-response","239","2.0.0","289497","pmzasujfyt4","null","<p style=""border: 5px solid green;"">Correct!</p>","null","","",""
"","","","","","html-keyboard-response","240","2.0.0","290500","pmzasujfyt4","null","<div style=""font-size: 75px;"">+</div>","null","","",""
"","","","","","image-keyboard-response","241","2.0.0","291587","pmzasujfyt4","1085","stimuli/1_50.jpg","f","response","f","true"
"","","","","","html-keyboard-response","242","2.0.0","292088","pmzasujfyt4","null","<p style=""border: 5px solid green;"">Correct!</p>","null","","",""
"","","","","","html-keyboard-response","243","2.0.0","293090","pmzasujfyt4","null","<div style=""font-size: 75px;"">+</div>","null","","",""
"","","","","","image-keyboard-response","244","2.0.0","294328","pmzasujfyt4","1236","stimuli/19_100.jpg","j","response","f","false"
"","","","","","html-keyboard-response","245","2.0.0","294829","pmzasujfyt4","null","<p style=""border: 5px solid red;"">Incorrect.</p>","null","","",""
"","","","","","html-keyboard-response","246","2.0.0","295832","pmzasujfyt4","null","<div style=""font-size: 75px;"">+</div>","null","","",""
"","","","","","image-keyboard-response","247","2.0.0","299400","pmzasujfyt4","3566","stimuli/46_150_R.jpg","f","response","j","false"
"","","","","","html-keyboard-response","248","2.0.0","299902","pmzasujfyt4","null","<p style=""border: 5px solid red;"">Incorrect.</p>","null","","",""
"","","","","","html-keyboard-response","249","2.0.0","300905","pmzasujfyt4","null","<div style=""font-size: 75px;"">+</div>","null","","",""
"","","","","","image-keyboard-response","250","2.0.0","303567","pmzasujfyt4","2661","stimuli/45_100_R.jpg","j","response","j","true"
"","","","","","html-keyboard-response","251","2.0.0","304068","pmzasujfyt4","null","<p style=""border: 5px solid green;"">Correct!</p>","null","","",""
"","","","","","html-keyboard-response","252","2.0.0","305072","pmzasujfyt4","null","<div style=""font-size: 75px;"">+</div>","null","","",""
"","","","","","image-keyboard-response","253","2.0.0","309784","pmzasujfyt4","4711","stimuli/31_50.jpg","f","response","f","true"
"","","","","","html-keyboard-response","254","2.0.0","310286","pmzasujfyt4","null","<p style=""border: 5px solid green;"">Correct!</p>","null","","",""
"","","","","","html-keyboard-response","255","2.0.0","311289","pmzasujfyt4","null","<div style=""font-size: 75px;"">+</div>","null","","",""
"","","","","","image-keyboard-response","256","2.0.0","314852","pmzasujfyt4","3562","stimuli/40_150.jpg","f","response","f","true"
"","","","","","html-keyboard-response","257","2.0.0","315354","pmzasujfyt4","null","<p style=""border: 5px solid green;"">Correct!</p>","null","","",""
"","","","","","html-keyboard-response","258","2.0.0","316356","pmzasujfyt4","null","<div style=""font-size: 75px;"">+</div>","null","","",""
"","","","","","image-keyboard-response","259","2.0.0","318743","pmzasujfyt4","2386","stimuli/48_50_R.jpg","j","response","j","true"
"","","","","","html-keyboard-response","260","2.0.0","319245","pmzasujfyt4","null","<p style=""border: 5px solid green;"">Correct!</p>","null","","",""
"","","","","","html-keyboard-response","261","2.0.0","320247","pmzasujfyt4","null","<div style=""font-size: 75px;"">+</div>","null","","",""
"","","","","","image-keyboard-response","262","2.0.0","329598","pmzasujfyt4","9349","stimuli/26_0_R.jpg","f","response","j","false"
"","","","","","html-keyboard-response","263","2.0.0","330099","pmzasujfyt4","null","<p style=""border: 5px solid red;"">Incorrect.</p>","null","","",""
"","","","","","html-keyboard-response","264","2.0.0","331102","pmzasujfyt4","null","<div style=""font-size: 75px;"">+</div>","null","","",""
"","","","","","image-keyboard-response","265","2.0.0","333496","pmzasujfyt4","2393","stimuli/15_0_R.jpg","f","response","j","false"
"","","","","","html-keyboard-response","266","2.0.0","333998","pmzasujfyt4","null","<p style=""border: 5px solid red;"">Incorrect.</p>","null","","",""
"","","","","","html-keyboard-response","267","2.0.0","335000","pmzasujfyt4","null","<div style=""font-size: 75px;"">+</div>","null","","",""
"","","","","","image-keyboard-response","268","2.0.0","335587","pmzasujfyt4","586","stimuli/10_0_R.jpg","j","response","j","true"
"","","","","","html-keyboard-response","269","2.0.0","336089","pmzasujfyt4","null","<p style=""border: 5px solid green;"">Correct!</p>","null","","",""
"","","","","","html-keyboard-response","270","2.0.0","337092","pmzasujfyt4","null","<div style=""font-size: 75px;"">+</div>","null","","",""
"","","","","","image-keyboard-response","271","2.0.0","338196","pmzasujfyt4","1103","stimuli/36_150_R.jpg","f","response","j","false"
"","","","","","html-keyboard-response","272","2.0.0","338698","pmzasujfyt4","null","<p style=""border: 5px solid red;"">Incorrect.</p>","null","","",""
"","","","","","html-keyboard-response","273","2.0.0","339700","pmzasujfyt4","null","<div style=""font-size: 75px;"">+</div>","null","","",""
"","","","","","image-keyboard-response","274","2.0.0","342472","pmzasujfyt4","2770","stimuli/24_0.jpg","f","response","f","true"
"","","","","","html-keyboard-response","275","2.0.0","342973","pmzasujfyt4","null","<p style=""border: 5px solid green;"">Correct!</p>","null","","",""
"","","","","","html-keyboard-response","276","2.0.0","343976","pmzasujfyt4","null","<div style=""font-size: 75px;"">+</div>","null","","",""
"","","","","","image-keyboard-response","277","2.0.0","345084","pmzasujfyt4","1107","stimuli/24_0_R.jpg","f","response","j","false"
"","","","","","html-keyboard-response","278","2.0.0","345585","pmzasujfyt4","null","<p style=""border: 5px solid red;"">Incorrect.</p>","null","","",""
"","","","","","html-keyboard-response","279","2.0.0","346588","pmzasujfyt4","null","<div style=""font-size: 75px;"">+</div>","null","","",""
"","","","","","image-keyboard-response","280","2.0.0","348118","pmzasujfyt4","1529","stimuli/6_100_R.jpg","f","response","j","false"
"","","","","","html-keyboard-response","281","2.0.0","348620","pmzasujfyt4","null","<p style=""border: 5px solid red;"">Incorrect.</p>","null","","",""
"","","","","","html-keyboard-response","282","2.0.0","349622","pmzasujfyt4","null","<div style=""font-size: 75px;"">+</div>","null","","",""
"","","","","","image-keyboard-response","283","2.0.0","350603","pmzasujfyt4","981","stimuli/8_100_R.jpg","j","response","j","true"
"","","","","","html-keyboard-response","284","2.0.0","351105","pmzasujfyt4","null","<p style=""border: 5px solid green;"">Correct!</p>","null","","",""
"","","","","","html-keyboard-response","285","2.0.0","352106","pmzasujfyt4","null","<div style=""font-size: 75px;"">+</div>","null","","",""
"","","","","","image-keyboard-response","286","2.0.0","353361","pmzasujfyt4","1254","stimuli/41_100.jpg","f","response","f","true"
"","","","","","html-keyboard-response","287","2.0.0","353863","pmzasujfyt4","null","<p style=""border: 5px solid green;"">Correct!</p>","null","","",""
"","","","","","html-keyboard-response","288","2.0.0","354865","pmzasujfyt4","null","<div style=""font-size: 75px;"">+</div>","null","","",""
"","","","","","image-keyboard-response","289","2.0.0","358435","pmzasujfyt4","3569","stimuli/29_100_R.jpg","j","response","j","true"
"","","","","","html-keyboard-response","290","2.0.0","358937","pmzasujfyt4","null","<p style=""border: 5px solid green;"">Correct!</p>","null","","",""
"","","","","","html-keyboard-response","291","2.0.0","359939","pmzasujfyt4","null","<div style=""font-size: 75px;"">+</div>","null","","",""
"","","","","","image-keyboard-response","292","2.0.0","361160","pmzasujfyt4","1219","stimuli/39_50.jpg","f","response","f","true"
"","","","","","html-keyboard-response","293","2.0.0","361661","pmzasujfyt4","null","<p style=""border: 5px solid green;"">Correct!</p>","null","","",""
"","","","","","html-keyboard-response","294","2.0.0","363156","pmzasujfyt4","1493","<p>Thank you for participating!</p><p>Please press space to answer our survey.</p>"," ","","",""
"","","","","","survey-html-form","295","null","394786","pmzasujfyt4","31627","","{""response_1"":""Perfectly clear and lively as real seeing"",""response_2"":""Perfectly clear and lively as real seeing"",""response_3"":""Perfectly clear and lively as real seeing"",""response_4"":""Perfectly clear and lively as real seeing"",""response_5"":""Perfectly clear and lively as real seeing"",""response_6"":""Perfectly clear and lively as real seeing"",""response_7"":""Perfectly clear and lively as real seeing"",""response_8"":""Perfectly clear and lively as real seeing"",""response_9"":""Perfectly clear and lively as real seeing"",""response_10"":""Perfectly clear and lively as real seeing"",""response_11"":""Clear and lively"",""response_12"":""Perfectly clear and lively as real seeing"",""response_13"":""Perfectly clear and lively as real seeing"",""response_14"":""Clear and lively"",""response_15"":""Perfectly clear and lively as real seeing"",""response_16"":""Perfectly clear and lively as real seeing""}","","",""
"","","","","","survey-html-form","296","null","418422","pmzasujfyt4","23634","","{""age"":""21"",""gender"":""male"",""education"":""some-college"",""handedness"":""ambidextrous"",""vision"":""normal"",""technical_difficulties"":""no"",""knowledge_check"":""reaction time of mental rotations""}","","",""
