"success","timeout","failed_images","failed_audio","failed_video","trial_type","trial_index","plugin_version","time_elapsed","random_id","rt","stimulus","response","task","correct_response","correct"
"true","false","[]","[]","[]","preload","0","2.0.0","4172","pn6xyglvp42","","","","","",""
"true","","","","","fullscreen","1","2.0.0","6281","pn6xyglvp42","1104","","","","",""
"","","","","","html-keyboard-response","2","2.0.0","11277","pn6xyglvp42","4994","Welcome to the experiment. Press any key to begin.","n","","",""
"","","","","","survey-text","3","2.0.0","19160","pn6xyglvp42","7878","","{""participant_id"":""dolphin""}","","",""
"","","","","","html-keyboard-response","4","2.0.0","26365","pn6xyglvp42","7203","
        <p>Welcome to the experiment.</p>
        <p>In this task, you will see pairs of images.</p>
        <p>Your job is to determine whether the image on the right is a rotated version of the image on the left.</p>
        <p>Press the <strong>F</strong> key if the images are the same.</p>
        <p>Press the <strong>J</strong> key if the images are different.</p>
        <p>Press any key to begin.</p>
    "," ","","",""
"","","","","","html-keyboard-response","5","2.0.0","27368","pn6xyglvp42","null","<div style=""font-size: 75px;"">+</div>","null","","",""
"","","","","","image-keyboard-response","6","2.0.0","29291","pn6xyglvp42","1919","stimuli/45_50_R.jpg","f","response","j","false"
"","","","","","html-keyboard-response","7","2.0.0","29794","pn6xyglvp42","null","<p style=""border: 5px solid red;"">Incorrect.</p>","null","","",""
"","","","","","html-keyboard-response","8","2.0.0","30798","pn6xyglvp42","null","<div style=""font-size: 75px;"">+</div>","null","","",""
"","","","","","image-keyboard-response","9","2.0.0","32483","pn6xyglvp42","1682","stimuli/39_100.jpg","j","response","f","false"
"","","","","","html-keyboard-response","10","2.0.0","32985","pn6xyglvp42","null","<p style=""border: 5px solid red;"">Incorrect.</p>","null","","",""
"","","","","","html-keyboard-response","11","2.0.0","33988","pn6xyglvp42","null","<div style=""font-size: 75px;"">+</div>","null","","",""
"","","","","","image-keyboard-response","12","2.0.0","37427","pn6xyglvp42","3437","stimuli/21_50.jpg","j","response","f","false"
"","","","","","html-keyboard-response","13","2.0.0","37929","pn6xyglvp42","null","<p style=""border: 5px solid red;"">Incorrect.</p>","null","","",""
"","","","","","html-keyboard-response","14","2.0.0","38933","pn6xyglvp42","null","<div style=""font-size: 75px;"">+</div>","null","","",""
"","","","","","image-keyboard-response","15","2.0.0","41900","pn6xyglvp42","2966","stimuli/20_0_R.jpg","j","response","j","true"
"","","","","","html-keyboard-response","16","2.0.0","42403","pn6xyglvp42","null","<p style=""border: 5px solid green;"">Correct!</p>","null","","",""
"","","","","","html-keyboard-response","17","2.0.0","43406","pn6xyglvp42","null","<div style=""font-size: 75px;"">+</div>","null","","",""
"","","","","","image-keyboard-response","18","2.0.0","45388","pn6xyglvp42","1980","stimuli/6_0.jpg","f","response","f","true"
"","","","","","html-keyboard-response","19","2.0.0","45889","pn6xyglvp42","null","<p style=""border: 5px solid green;"">Correct!</p>","null","","",""
"","","","","","html-keyboard-response","20","2.0.0","46893","pn6xyglvp42","null","<div style=""font-size: 75px;"">+</div>","null","","",""
"","","","","","image-keyboard-response","21","2.0.0","47610","pn6xyglvp42","715","stimuli/44_0_R.jpg","j","response","j","true"
"","","","","","html-keyboard-response","22","2.0.0","48112","pn6xyglvp42","null","<p style=""border: 5px solid green;"">Correct!</p>","null","","",""
"","","","","","html-keyboard-response","23","2.0.0","49116","pn6xyglvp42","null","<div style=""font-size: 75px;"">+</div>","null","","",""
"","","","","","image-keyboard-response","24","2.0.0","50138","pn6xyglvp42","1020","stimuli/2_150_R.jpg","j","response","j","true"
"","","","","","html-keyboard-response","25","2.0.0","50640","pn6xyglvp42","null","<p style=""border: 5px solid green;"">Correct!</p>","null","","",""
"","","","","","html-keyboard-response","26","2.0.0","51643","pn6xyglvp42","null","<div style=""font-size: 75px;"">+</div>","null","","",""
"","","","","","image-keyboard-response","27","2.0.0","52410","pn6xyglvp42","765","stimuli/42_50_R.jpg","j","response","j","true"
"","","","","","html-keyboard-response","28","2.0.0","52913","pn6xyglvp42","null","<p style=""border: 5px solid green;"">Correct!</p>","null","","",""
"","","","","","html-keyboard-response","29","2.0.0","53915","pn6xyglvp42","null","<div style=""font-size: 75px;"">+</div>","null","","",""
"","","","","","image-keyboard-response","30","2.0.0","54748","pn6xyglvp42","831","stimuli/25_100.jpg","f","response","f","true"
"","","","","","html-keyboard-response","31","2.0.0","55250","pn6xyglvp42","null","<p style=""border: 5px solid green;"">Correct!</p>","null","","",""
"","","","","","html-keyboard-response","32","2.0.0","56253","pn6xyglvp42","null","<div style=""font-size: 75px;"">+</div>","null","","",""
"","","","","","image-keyboard-response","33","2.0.0","57052","pn6xyglvp42","797","stimuli/26_50.jpg","j","response","f","false"
"","","","","","html-keyboard-response","34","2.0.0","57553","pn6xyglvp42","null","<p style=""border: 5px solid red;"">Incorrect.</p>","null","","",""
"","","","","","html-keyboard-response","35","2.0.0","58556","pn6xyglvp42","null","<div style=""font-size: 75px;"">+</div>","null","","",""
"","","","","","image-keyboard-response","36","2.0.0","59875","pn6xyglvp42","1316","stimuli/2_50_R.jpg","j","response","j","true"
"","","","","","html-keyboard-response","37","2.0.0","60376","pn6xyglvp42","null","<p style=""border: 5px solid green;"">Correct!</p>","null","","",""
"","","","","","html-keyboard-response","38","2.0.0","61377","pn6xyglvp42","null","<div style=""font-size: 75px;"">+</div>","null","","",""
"","","","","","image-keyboard-response","39","2.0.0","62148","pn6xyglvp42","768","stimuli/45_0.jpg","f","response","f","true"
"","","","","","html-keyboard-response","40","2.0.0","62650","pn6xyglvp42","null","<p style=""border: 5px solid green;"">Correct!</p>","null","","",""
"","","","","","html-keyboard-response","41","2.0.0","63652","pn6xyglvp42","null","<div style=""font-size: 75px;"">+</div>","null","","",""
"","","","","","image-keyboard-response","42","2.0.0","65360","pn6xyglvp42","1706","stimuli/3_0.jpg","f","response","f","true"
"","","","","","html-keyboard-response","43","2.0.0","65862","pn6xyglvp42","null","<p style=""border: 5px solid green;"">Correct!</p>","null","","",""
"","","","","","html-keyboard-response","44","2.0.0","66865","pn6xyglvp42","null","<div style=""font-size: 75px;"">+</div>","null","","",""
"","","","","","image-keyboard-response","45","2.0.0","69733","pn6xyglvp42","2866","stimuli/6_0_R.jpg","j","response","j","true"
"","","","","","html-keyboard-response","46","2.0.0","70234","pn6xyglvp42","null","<p style=""border: 5px solid green;"">Correct!</p>","null","","",""
"","","","","","html-keyboard-response","47","2.0.0","71237","pn6xyglvp42","null","<div style=""font-size: 75px;"">+</div>","null","","",""
"","","","","","image-keyboard-response","48","2.0.0","71919","pn6xyglvp42","680","stimuli/22_150_R.jpg","j","response","j","true"
"","","","","","html-keyboard-response","49","2.0.0","72422","pn6xyglvp42","null","<p style=""border: 5px solid green;"">Correct!</p>","null","","",""
"","","","","","html-keyboard-response","50","2.0.0","73424","pn6xyglvp42","null","<div style=""font-size: 75px;"">+</div>","null","","",""
"","","","","","image-keyboard-response","51","2.0.0","73986","pn6xyglvp42","560","stimuli/22_50.jpg","j","response","f","false"
"","","","","","html-keyboard-response","52","2.0.0","74487","pn6xyglvp42","null","<p style=""border: 5px solid red;"">Incorrect.</p>","null","","",""
"","","","","","html-keyboard-response","53","2.0.0","75490","pn6xyglvp42","null","<div style=""font-size: 75px;"">+</div>","null","","",""
"","","","","","image-keyboard-response","54","2.0.0","77388","pn6xyglvp42","1895","stimuli/32_150.jpg","f","response","f","true"
"","","","","","html-keyboard-response","55","2.0.0","77890","pn6xyglvp42","null","<p style=""border: 5px solid green;"">Correct!</p>","null","","",""
"","","","","","html-keyboard-response","56","2.0.0","78892","pn6xyglvp42","null","<div style=""font-size: 75px;"">+</div>","null","","",""
"","","","","","image-keyboard-response","57","2.0.0","81460","pn6xyglvp42","2566","stimuli/8_100.jpg","j","response","f","false"
"","","","","","html-keyboard-response","58","2.0.0","81962","pn6xyglvp42","null","<p style=""border: 5px solid red;"">Incorrect.</p>","null","","",""
"","","","","","html-keyboard-response","59","2.0.0","82965","pn6xyglvp42","null","<div style=""font-size: 75px;"">+</div>","null","","",""
"","","","","","image-keyboard-response","60","2.0.0","83832","pn6xyglvp42","865","stimuli/44_0.jpg","f","response","f","true"
"","","","","","html-keyboard-response","61","2.0.0","84333","pn6xyglvp42","null","<p style=""border: 5px solid green;"">Correct!</p>","null","","",""
"","","","","","html-keyboard-response","62","2.0.0","85336","pn6xyglvp42","null","<div style=""font-size: 75px;"">+</div>","null","","",""
"","","","","","image-keyboard-response","63","2.0.0","87133","pn6xyglvp42","1796","stimuli/3_50_R.jpg","j","response","j","true"
"","","","","","html-keyboard-response","64","2.0.0","87635","pn6xyglvp42","null","<p style=""border: 5px solid green;"">Correct!</p>","null","","",""
"","","","","","html-keyboard-response","65","2.0.0","88637","pn6xyglvp42","null","<div style=""font-size: 75px;"">+</div>","null","","",""
"","","","","","image-keyboard-response","66","2.0.0","90267","pn6xyglvp42","1628","stimuli/46_150_R.jpg","j","response","j","true"
"","","","","","html-keyboard-response","67","2.0.0","90769","pn6xyglvp42","null","<p style=""border: 5px solid green;"">Correct!</p>","null","","",""
"","","","","","html-keyboard-response","68","2.0.0","91771","pn6xyglvp42","null","<div style=""font-size: 75px;"">+</div>","null","","",""
"","","","","","image-keyboard-response","69","2.0.0","92854","pn6xyglvp42","1082","stimuli/2_0_R.jpg","j","response","j","true"
"","","","","","html-keyboard-response","70","2.0.0","93356","pn6xyglvp42","null","<p style=""border: 5px solid green;"">Correct!</p>","null","","",""
"","","","","","html-keyboard-response","71","2.0.0","94359","pn6xyglvp42","null","<div style=""font-size: 75px;"">+</div>","null","","",""
"","","","","","image-keyboard-response","72","2.0.0","97050","pn6xyglvp42","2689","stimuli/16_150_R.jpg","f","response","j","false"
"","","","","","html-keyboard-response","73","2.0.0","97551","pn6xyglvp42","null","<p style=""border: 5px solid red;"">Incorrect.</p>","null","","",""
"","","","","","html-keyboard-response","74","2.0.0","98555","pn6xyglvp42","null","<div style=""font-size: 75px;"">+</div>","null","","",""
"","","","","","image-keyboard-response","75","2.0.0","100080","pn6xyglvp42","1523","stimuli/25_150_R.jpg","f","response","j","false"
"","","","","","html-keyboard-response","76","2.0.0","100582","pn6xyglvp42","null","<p style=""border: 5px solid red;"">Incorrect.</p>","null","","",""
"","","","","","html-keyboard-response","77","2.0.0","101585","pn6xyglvp42","null","<div style=""font-size: 75px;"">+</div>","null","","",""
"","","","","","image-keyboard-response","78","2.0.0","102611","pn6xyglvp42","1024","stimuli/20_150.jpg","j","response","f","false"
"","","","","","html-keyboard-response","79","2.0.0","103114","pn6xyglvp42","null","<p style=""border: 5px solid red;"">Incorrect.</p>","null","","",""
"","","","","","html-keyboard-response","80","2.0.0","104116","pn6xyglvp42","null","<div style=""font-size: 75px;"">+</div>","null","","",""
"","","","","","image-keyboard-response","81","2.0.0","105226","pn6xyglvp42","1107","stimuli/41_150_R.jpg","j","response","j","true"
"","","","","","html-keyboard-response","82","2.0.0","105727","pn6xyglvp42","null","<p style=""border: 5px solid green;"">Correct!</p>","null","","",""
"","","","","","html-keyboard-response","83","2.0.0","106730","pn6xyglvp42","null","<div style=""font-size: 75px;"">+</div>","null","","",""
"","","","","","image-keyboard-response","84","2.0.0","107620","pn6xyglvp42","887","stimuli/30_150.jpg","j","response","f","false"
"","","","","","html-keyboard-response","85","2.0.0","108122","pn6xyglvp42","null","<p style=""border: 5px solid red;"">Incorrect.</p>","null","","",""
"","","","","","html-keyboard-response","86","2.0.0","109125","pn6xyglvp42","null","<div style=""font-size: 75px;"">+</div>","null","","",""
"","","","","","image-keyboard-response","87","2.0.0","112155","pn6xyglvp42","3028","stimuli/10_0.jpg","f","response","f","true"
"","","","","","html-keyboard-response","88","2.0.0","112658","pn6xyglvp42","null","<p style=""border: 5px solid green;"">Correct!</p>","null","","",""
"","","","","","html-keyboard-response","89","2.0.0","113661","pn6xyglvp42","null","<div style=""font-size: 75px;"">+</div>","null","","",""
"","","","","","image-keyboard-response","90","2.0.0","114433","pn6xyglvp42","770","stimuli/18_0.jpg","f","response","f","true"
"","","","","","html-keyboard-response","91","2.0.0","114935","pn6xyglvp42","null","<p style=""border: 5px solid green;"">Correct!</p>","null","","",""
"","","","","","html-keyboard-response","92","2.0.0","115938","pn6xyglvp42","null","<div style=""font-size: 75px;"">+</div>","null","","",""
"","","","","","image-keyboard-response","93","2.0.0","116827","pn6xyglvp42","887","stimuli/11_0_R.jpg","j","response","j","true"
"","","","","","html-keyboard-response","94","2.0.0","117329","pn6xyglvp42","null","<p style=""border: 5px solid green;"">Correct!</p>","null","","",""
"","","","","","html-keyboard-response","95","2.0.0","118332","pn6xyglvp42","null","<div style=""font-size: 75px;"">+</div>","null","","",""
"","","","","","image-keyboard-response","96","2.0.0","119223","pn6xyglvp42","888","stimuli/25_50.jpg","f","response","f","true"
"","","","","","html-keyboard-response","97","2.0.0","119725","pn6xyglvp42","null","<p style=""border: 5px solid green;"">Correct!</p>","null","","",""
"","","","","","html-keyboard-response","98","2.0.0","120728","pn6xyglvp42","null","<div style=""font-size: 75px;"">+</div>","null","","",""
"","","","","","image-keyboard-response","99","2.0.0","121842","pn6xyglvp42","1112","stimuli/19_50_R.jpg","f","response","j","false"
"","","","","","html-keyboard-response","100","2.0.0","122344","pn6xyglvp42","null","<p style=""border: 5px solid red;"">Incorrect.</p>","null","","",""
"","","","","","html-keyboard-response","101","2.0.0","123347","pn6xyglvp42","null","<div style=""font-size: 75px;"">+</div>","null","","",""
"","","","","","image-keyboard-response","102","2.0.0","123987","pn6xyglvp42","638","stimuli/3_150_R.jpg","j","response","j","true"
"","","","","","html-keyboard-response","103","2.0.0","124489","pn6xyglvp42","null","<p style=""border: 5px solid green;"">Correct!</p>","null","","",""
"","","","","","html-keyboard-response","104","2.0.0","125491","pn6xyglvp42","null","<div style=""font-size: 75px;"">+</div>","null","","",""
"","","","","","image-keyboard-response","105","2.0.0","126102","pn6xyglvp42","609","stimuli/30_100.jpg","j","response","f","false"
"","","","","","html-keyboard-response","106","2.0.0","126610","pn6xyglvp42","null","<p style=""border: 5px solid red;"">Incorrect.</p>","null","","",""
"","","","","","html-keyboard-response","107","2.0.0","127613","pn6xyglvp42","null","<div style=""font-size: 75px;"">+</div>","null","","",""
"","","","","","image-keyboard-response","108","2.0.0","128935","pn6xyglvp42","1321","stimuli/29_50.jpg","f","response","f","true"
"","","","","","html-keyboard-response","109","2.0.0","129437","pn6xyglvp42","null","<p style=""border: 5px solid green;"">Correct!</p>","null","","",""
"","","","","","html-keyboard-response","110","2.0.0","130439","pn6xyglvp42","null","<div style=""font-size: 75px;"">+</div>","null","","",""
"","","","","","image-keyboard-response","111","2.0.0","131122","pn6xyglvp42","681","stimuli/13_150_R.jpg","j","response","j","true"
"","","","","","html-keyboard-response","112","2.0.0","131624","pn6xyglvp42","null","<p style=""border: 5px solid green;"">Correct!</p>","null","","",""
"","","","","","html-keyboard-response","113","2.0.0","132626","pn6xyglvp42","null","<div style=""font-size: 75px;"">+</div>","null","","",""
"","","","","","image-keyboard-response","114","2.0.0","133703","pn6xyglvp42","1075","stimuli/16_50.jpg","j","response","f","false"
"","","","","","html-keyboard-response","115","2.0.0","134205","pn6xyglvp42","null","<p style=""border: 5px solid red;"">Incorrect.</p>","null","","",""
"","","","","","html-keyboard-response","116","2.0.0","135208","pn6xyglvp42","null","<div style=""font-size: 75px;"">+</div>","null","","",""
"","","","","","image-keyboard-response","117","2.0.0","135923","pn6xyglvp42","713","stimuli/3_100_R.jpg","f","response","j","false"
"","","","","","html-keyboard-response","118","2.0.0","136425","pn6xyglvp42","null","<p style=""border: 5px solid red;"">Incorrect.</p>","null","","",""
"","","","","","html-keyboard-response","119","2.0.0","137429","pn6xyglvp42","null","<div style=""font-size: 75px;"">+</div>","null","","",""
"","","","","","image-keyboard-response","120","2.0.0","138230","pn6xyglvp42","800","stimuli/5_50_R.jpg","j","response","j","true"
"","","","","","html-keyboard-response","121","2.0.0","138732","pn6xyglvp42","null","<p style=""border: 5px solid green;"">Correct!</p>","null","","",""
"","","","","","html-keyboard-response","122","2.0.0","139735","pn6xyglvp42","null","<div style=""font-size: 75px;"">+</div>","null","","",""
"","","","","","image-keyboard-response","123","2.0.0","140490","pn6xyglvp42","753","stimuli/24_50_R.jpg","f","response","j","false"
"","","","","","html-keyboard-response","124","2.0.0","140991","pn6xyglvp42","null","<p style=""border: 5px solid red;"">Incorrect.</p>","null","","",""
"","","","","","html-keyboard-response","125","2.0.0","141994","pn6xyglvp42","null","<div style=""font-size: 75px;"">+</div>","null","","",""
"","","","","","image-keyboard-response","126","2.0.0","142586","pn6xyglvp42","590","stimuli/33_50_R.jpg","f","response","j","false"
"","","","","","html-keyboard-response","127","2.0.0","143088","pn6xyglvp42","null","<p style=""border: 5px solid red;"">Incorrect.</p>","null","","",""
"","","","","","html-keyboard-response","128","2.0.0","144091","pn6xyglvp42","null","<div style=""font-size: 75px;"">+</div>","null","","",""
"","","","","","image-keyboard-response","129","2.0.0","145112","pn6xyglvp42","1019","stimuli/20_50_R.jpg","j","response","j","true"
"","","","","","html-keyboard-response","130","2.0.0","145614","pn6xyglvp42","null","<p style=""border: 5px solid green;"">Correct!</p>","null","","",""
"","","","","","html-keyboard-response","131","2.0.0","146617","pn6xyglvp42","null","<div style=""font-size: 75px;"">+</div>","null","","",""
"","","","","","image-keyboard-response","132","2.0.0","147446","pn6xyglvp42","828","stimuli/39_0.jpg","f","response","f","true"
"","","","","","html-keyboard-response","133","2.0.0","147948","pn6xyglvp42","null","<p style=""border: 5px solid green;"">Correct!</p>","null","","",""
"","","","","","html-keyboard-response","134","2.0.0","148950","pn6xyglvp42","null","<div style=""font-size: 75px;"">+</div>","null","","",""
"","","","","","image-keyboard-response","135","2.0.0","149975","pn6xyglvp42","1023","stimuli/7_0_R.jpg","f","response","j","false"
"","","","","","html-keyboard-response","136","2.0.0","150476","pn6xyglvp42","null","<p style=""border: 5px solid red;"">Incorrect.</p>","null","","",""
"","","","","","html-keyboard-response","137","2.0.0","151478","pn6xyglvp42","null","<div style=""font-size: 75px;"">+</div>","null","","",""
"","","","","","image-keyboard-response","138","2.0.0","152677","pn6xyglvp42","1197","stimuli/21_150.jpg","j","response","f","false"
"","","","","","html-keyboard-response","139","2.0.0","153178","pn6xyglvp42","null","<p style=""border: 5px solid red;"">Incorrect.</p>","null","","",""
"","","","","","html-keyboard-response","140","2.0.0","154181","pn6xyglvp42","null","<div style=""font-size: 75px;"">+</div>","null","","",""
"","","","","","image-keyboard-response","141","2.0.0","155500","pn6xyglvp42","1317","stimuli/33_100_R.jpg","j","response","j","true"
"","","","","","html-keyboard-response","142","2.0.0","156002","pn6xyglvp42","null","<p style=""border: 5px solid green;"">Correct!</p>","null","","",""
"","","","","","html-keyboard-response","143","2.0.0","157005","pn6xyglvp42","null","<div style=""font-size: 75px;"">+</div>","null","","",""
"","","","","","image-keyboard-response","144","2.0.0","158478","pn6xyglvp42","1470","stimuli/43_50.jpg","f","response","f","true"
"","","","","","html-keyboard-response","145","2.0.0","158980","pn6xyglvp42","null","<p style=""border: 5px solid green;"">Correct!</p>","null","","",""
"","","","","","html-keyboard-response","146","2.0.0","159983","pn6xyglvp42","null","<div style=""font-size: 75px;"">+</div>","null","","",""
"","","","","","image-keyboard-response","147","2.0.0","160656","pn6xyglvp42","671","stimuli/4_50.jpg","f","response","f","true"
"","","","","","html-keyboard-response","148","2.0.0","161158","pn6xyglvp42","null","<p style=""border: 5px solid green;"">Correct!</p>","null","","",""
"","","","","","html-keyboard-response","149","2.0.0","191161","pn6xyglvp42","null","<p> Take a break! Experiment continues in 30 seconds . </p>","null","","",""
"","","","","","html-keyboard-response","150","2.0.0","192164","pn6xyglvp42","null","<div style=""font-size: 75px;"">+</div>","null","","",""
"","","","","","image-keyboard-response","151","2.0.0","193451","pn6xyglvp42","1285","stimuli/43_150.jpg","f","response","f","true"
"","","","","","html-keyboard-response","152","2.0.0","193952","pn6xyglvp42","null","<p style=""border: 5px solid green;"">Correct!</p>","null","","",""
"","","","","","html-keyboard-response","153","2.0.0","194955","pn6xyglvp42","null","<div style=""font-size: 75px;"">+</div>","null","","",""
"","","","","","image-keyboard-response","154","2.0.0","195784","pn6xyglvp42","826","stimuli/25_150.jpg","f","response","f","true"
"","","","","","html-keyboard-response","155","2.0.0","196285","pn6xyglvp42","null","<p style=""border: 5px solid green;"">Correct!</p>","null","","",""
"","","","","","html-keyboard-response","156","2.0.0","197288","pn6xyglvp42","null","<div style=""font-size: 75px;"">+</div>","null","","",""
"","","","","","image-keyboard-response","157","2.0.0","197857","pn6xyglvp42","567","stimuli/43_50_R.jpg","f","response","j","false"
"","","","","","html-keyboard-response","158","2.0.0","198359","pn6xyglvp42","null","<p style=""border: 5px solid red;"">Incorrect.</p>","null","","",""
"","","","","","html-keyboard-response","159","2.0.0","199362","pn6xyglvp42","null","<div style=""font-size: 75px;"">+</div>","null","","",""
"","","","","","image-keyboard-response","160","2.0.0","199969","pn6xyglvp42","605","stimuli/48_0.jpg","f","response","f","true"
"","","","","","html-keyboard-response","161","2.0.0","200471","pn6xyglvp42","null","<p style=""border: 5px solid green;"">Correct!</p>","null","","",""
"","","","","","html-keyboard-response","162","2.0.0","201473","pn6xyglvp42","null","<div style=""font-size: 75px;"">+</div>","null","","",""
"","","","","","image-keyboard-response","163","2.0.0","202068","pn6xyglvp42","592","stimuli/18_0_R.jpg","f","response","j","false"
"","","","","","html-keyboard-response","164","2.0.0","202570","pn6xyglvp42","null","<p style=""border: 5px solid red;"">Incorrect.</p>","null","","",""
"","","","","","html-keyboard-response","165","2.0.0","203573","pn6xyglvp42","null","<div style=""font-size: 75px;"">+</div>","null","","",""
"","","","","","image-keyboard-response","166","2.0.0","204262","pn6xyglvp42","687","stimuli/18_100_R.jpg","j","response","j","true"
"","","","","","html-keyboard-response","167","2.0.0","204764","pn6xyglvp42","null","<p style=""border: 5px solid green;"">Correct!</p>","null","","",""
"","","","","","html-keyboard-response","168","2.0.0","205766","pn6xyglvp42","null","<div style=""font-size: 75px;"">+</div>","null","","",""
"","","","","","image-keyboard-response","169","2.0.0","206565","pn6xyglvp42","797","stimuli/11_50_R.jpg","j","response","j","true"
"","","","","","html-keyboard-response","170","2.0.0","207067","pn6xyglvp42","null","<p style=""border: 5px solid green;"">Correct!</p>","null","","",""
"","","","","","html-keyboard-response","171","2.0.0","208069","pn6xyglvp42","null","<div style=""font-size: 75px;"">+</div>","null","","",""
"","","","","","image-keyboard-response","172","2.0.0","208897","pn6xyglvp42","826","stimuli/12_100.jpg","j","response","f","false"
"","","","","","html-keyboard-response","173","2.0.0","209400","pn6xyglvp42","null","<p style=""border: 5px solid red;"">Incorrect.</p>","null","","",""
"","","","","","html-keyboard-response","174","2.0.0","210402","pn6xyglvp42","null","<div style=""font-size: 75px;"">+</div>","null","","",""
"","","","","","image-keyboard-response","175","2.0.0","211054","pn6xyglvp42","651","stimuli/22_0.jpg","f","response","f","true"
"","","","","","html-keyboard-response","176","2.0.0","211557","pn6xyglvp42","null","<p style=""border: 5px solid green;"">Correct!</p>","null","","",""
"","","","","","html-keyboard-response","177","2.0.0","212560","pn6xyglvp42","null","<div style=""font-size: 75px;"">+</div>","null","","",""
"","","","","","image-keyboard-response","178","2.0.0","213229","pn6xyglvp42","667","stimuli/14_150.jpg","j","response","f","false"
"","","","","","html-keyboard-response","179","2.0.0","213731","pn6xyglvp42","null","<p style=""border: 5px solid red;"">Incorrect.</p>","null","","",""
"","","","","","html-keyboard-response","180","2.0.0","214733","pn6xyglvp42","null","<div style=""font-size: 75px;"">+</div>","null","","",""
"","","","","","image-keyboard-response","181","2.0.0","218232","pn6xyglvp42","3496","stimuli/14_100.jpg","f","response","f","true"
"","","","","","html-keyboard-response","182","2.0.0","218734","pn6xyglvp42","null","<p style=""border: 5px solid green;"">Correct!</p>","null","","",""
"","","","","","html-keyboard-response","183","2.0.0","219737","pn6xyglvp42","null","<div style=""font-size: 75px;"">+</div>","null","","",""
"","","","","","image-keyboard-response","184","2.0.0","220677","pn6xyglvp42","938","stimuli/27_150.jpg","j","response","f","false"
"","","","","","html-keyboard-response","185","2.0.0","221179","pn6xyglvp42","null","<p style=""border: 5px solid red;"">Incorrect.</p>","null","","",""
"","","","","","html-keyboard-response","186","2.0.0","222182","pn6xyglvp42","null","<div style=""font-size: 75px;"">+</div>","null","","",""
"","","","","","image-keyboard-response","187","2.0.0","223182","pn6xyglvp42","998","stimuli/8_100_R.jpg","f","response","j","false"
"","","","","","html-keyboard-response","188","2.0.0","223684","pn6xyglvp42","null","<p style=""border: 5px solid red;"">Incorrect.</p>","null","","",""
"","","","","","html-keyboard-response","189","2.0.0","224686","pn6xyglvp42","null","<div style=""font-size: 75px;"">+</div>","null","","",""
"","","","","","image-keyboard-response","190","2.0.0","226091","pn6xyglvp42","1402","stimuli/38_150.jpg","f","response","f","true"
"","","","","","html-keyboard-response","191","2.0.0","226593","pn6xyglvp42","null","<p style=""border: 5px solid green;"">Correct!</p>","null","","",""
"","","","","","html-keyboard-response","192","2.0.0","227595","pn6xyglvp42","null","<div style=""font-size: 75px;"">+</div>","null","","",""
"","","","","","image-keyboard-response","193","2.0.0","229017","pn6xyglvp42","1421","stimuli/33_150.jpg","f","response","f","true"
"","","","","","html-keyboard-response","194","2.0.0","229520","pn6xyglvp42","null","<p style=""border: 5px solid green;"">Correct!</p>","null","","",""
"","","","","","html-keyboard-response","195","2.0.0","230522","pn6xyglvp42","null","<div style=""font-size: 75px;"">+</div>","null","","",""
"","","","","","image-keyboard-response","196","2.0.0","231145","pn6xyglvp42","621","stimuli/43_0.jpg","f","response","f","true"
"","","","","","html-keyboard-response","197","2.0.0","231647","pn6xyglvp42","null","<p style=""border: 5px solid green;"">Correct!</p>","null","","",""
"","","","","","html-keyboard-response","198","2.0.0","232649","pn6xyglvp42","null","<div style=""font-size: 75px;"">+</div>","null","","",""
"","","","","","image-keyboard-response","199","2.0.0","233275","pn6xyglvp42","624","stimuli/10_100.jpg","j","response","f","false"
"","","","","","html-keyboard-response","200","2.0.0","233777","pn6xyglvp42","null","<p style=""border: 5px solid red;"">Incorrect.</p>","null","","",""
"","","","","","html-keyboard-response","201","2.0.0","234780","pn6xyglvp42","null","<div style=""font-size: 75px;"">+</div>","null","","",""
"","","","","","image-keyboard-response","202","2.0.0","235487","pn6xyglvp42","705","stimuli/45_100.jpg","j","response","f","false"
"","","","","","html-keyboard-response","203","2.0.0","235988","pn6xyglvp42","null","<p style=""border: 5px solid red;"">Incorrect.</p>","null","","",""
"","","","","","html-keyboard-response","204","2.0.0","236991","pn6xyglvp42","null","<div style=""font-size: 75px;"">+</div>","null","","",""
"","","","","","image-keyboard-response","205","2.0.0","237666","pn6xyglvp42","673","stimuli/15_150.jpg","f","response","f","true"
"","","","","","html-keyboard-response","206","2.0.0","238168","pn6xyglvp42","null","<p style=""border: 5px solid green;"">Correct!</p>","null","","",""
"","","","","","html-keyboard-response","207","2.0.0","239170","pn6xyglvp42","null","<div style=""font-size: 75px;"">+</div>","null","","",""
"","","","","","image-keyboard-response","208","2.0.0","239733","pn6xyglvp42","561","stimuli/15_100_R.jpg","f","response","j","false"
"","","","","","html-keyboard-response","209","2.0.0","240235","pn6xyglvp42","null","<p style=""border: 5px solid red;"">Incorrect.</p>","null","","",""
"","","","","","html-keyboard-response","210","2.0.0","241238","pn6xyglvp42","null","<div style=""font-size: 75px;"">+</div>","null","","",""
"","","","","","image-keyboard-response","211","2.0.0","242073","pn6xyglvp42","834","stimuli/35_50_R.jpg","j","response","j","true"
"","","","","","html-keyboard-response","212","2.0.0","242575","pn6xyglvp42","null","<p style=""border: 5px solid green;"">Correct!</p>","null","","",""
"","","","","","html-keyboard-response","213","2.0.0","243577","pn6xyglvp42","null","<div style=""font-size: 75px;"">+</div>","null","","",""
"","","","","","image-keyboard-response","214","2.0.0","244277","pn6xyglvp42","698","stimuli/7_100.jpg","j","response","f","false"
"","","","","","html-keyboard-response","215","2.0.0","244780","pn6xyglvp42","null","<p style=""border: 5px solid red;"">Incorrect.</p>","null","","",""
"","","","","","html-keyboard-response","216","2.0.0","245782","pn6xyglvp42","null","<div style=""font-size: 75px;"">+</div>","null","","",""
"","","","","","image-keyboard-response","217","2.0.0","246292","pn6xyglvp42","507","stimuli/19_150_R.jpg","f","response","j","false"
"","","","","","html-keyboard-response","218","2.0.0","246794","pn6xyglvp42","null","<p style=""border: 5px solid red;"">Incorrect.</p>","null","","",""
"","","","","","html-keyboard-response","219","2.0.0","247797","pn6xyglvp42","null","<div style=""font-size: 75px;"">+</div>","null","","",""
"","","","","","image-keyboard-response","220","2.0.0","247968","pn6xyglvp42","170","stimuli/6_150_R.jpg","j","response","j","true"
"","","","","","html-keyboard-response","221","2.0.0","248470","pn6xyglvp42","null","<p style=""border: 5px solid green;"">Correct!</p>","null","","",""
"","","","","","html-keyboard-response","222","2.0.0","249473","pn6xyglvp42","null","<div style=""font-size: 75px;"">+</div>","null","","",""
"","","","","","image-keyboard-response","223","2.0.0","249754","pn6xyglvp42","279","stimuli/28_100.jpg","j","response","f","false"
"","","","","","html-keyboard-response","224","2.0.0","250257","pn6xyglvp42","null","<p style=""border: 5px solid red;"">Incorrect.</p>","null","","",""
"","","","","","html-keyboard-response","225","2.0.0","251260","pn6xyglvp42","null","<div style=""font-size: 75px;"">+</div>","null","","",""
"","","","","","image-keyboard-response","226","2.0.0","254955","pn6xyglvp42","3694","stimuli/4_0_R.jpg","j","response","j","true"
"","","","","","html-keyboard-response","227","2.0.0","255457","pn6xyglvp42","null","<p style=""border: 5px solid green;"">Correct!</p>","null","","",""
"","","","","","html-keyboard-response","228","2.0.0","256460","pn6xyglvp42","null","<div style=""font-size: 75px;"">+</div>","null","","",""
"","","","","","image-keyboard-response","229","2.0.0","257263","pn6xyglvp42","801","stimuli/21_100_R.jpg","f","response","j","false"
"","","","","","html-keyboard-response","230","2.0.0","257765","pn6xyglvp42","null","<p style=""border: 5px solid red;"">Incorrect.</p>","null","","",""
"","","","","","html-keyboard-response","231","2.0.0","258769","pn6xyglvp42","null","<div style=""font-size: 75px;"">+</div>","null","","",""
"","","","","","image-keyboard-response","232","2.0.0","259170","pn6xyglvp42","400","stimuli/19_100_R.jpg","j","response","j","true"
"","","","","","html-keyboard-response","233","2.0.0","259672","pn6xyglvp42","null","<p style=""border: 5px solid green;"">Correct!</p>","null","","",""
"","","","","","html-keyboard-response","234","2.0.0","260675","pn6xyglvp42","null","<div style=""font-size: 75px;"">+</div>","null","","",""
"","","","","","image-keyboard-response","235","2.0.0","261286","pn6xyglvp42","609","stimuli/9_50.jpg","f","response","f","true"
"","","","","","html-keyboard-response","236","2.0.0","261788","pn6xyglvp42","null","<p style=""border: 5px solid green;"">Correct!</p>","null","","",""
"","","","","","html-keyboard-response","237","2.0.0","262790","pn6xyglvp42","null","<div style=""font-size: 75px;"">+</div>","null","","",""
"","","","","","image-keyboard-response","238","2.0.0","263360","pn6xyglvp42","568","stimuli/11_150_R.jpg","f","response","j","false"
"","","","","","html-keyboard-response","239","2.0.0","263862","pn6xyglvp42","null","<p style=""border: 5px solid red;"">Incorrect.</p>","null","","",""
"","","","","","html-keyboard-response","240","2.0.0","264865","pn6xyglvp42","null","<div style=""font-size: 75px;"">+</div>","null","","",""
"","","","","","image-keyboard-response","241","2.0.0","265587","pn6xyglvp42","720","stimuli/24_50.jpg","f","response","f","true"
"","","","","","html-keyboard-response","242","2.0.0","266089","pn6xyglvp42","null","<p style=""border: 5px solid green;"">Correct!</p>","null","","",""
"","","","","","html-keyboard-response","243","2.0.0","267092","pn6xyglvp42","null","<div style=""font-size: 75px;"">+</div>","null","","",""
"","","","","","image-keyboard-response","244","2.0.0","267376","pn6xyglvp42","281","stimuli/30_0_R.jpg","j","response","j","true"
"","","","","","html-keyboard-response","245","2.0.0","267878","pn6xyglvp42","null","<p style=""border: 5px solid green;"">Correct!</p>","null","","",""
"","","","","","html-keyboard-response","246","2.0.0","268881","pn6xyglvp42","null","<div style=""font-size: 75px;"">+</div>","null","","",""
"","","","","","image-keyboard-response","247","2.0.0","269493","pn6xyglvp42","610","stimuli/25_100_R.jpg","f","response","j","false"
"","","","","","html-keyboard-response","248","2.0.0","269995","pn6xyglvp42","null","<p style=""border: 5px solid red;"">Incorrect.</p>","null","","",""
"","","","","","html-keyboard-response","249","2.0.0","270998","pn6xyglvp42","null","<div style=""font-size: 75px;"">+</div>","null","","",""
"","","","","","image-keyboard-response","250","2.0.0","271192","pn6xyglvp42","192","stimuli/24_0_R.jpg","j","response","j","true"
"","","","","","html-keyboard-response","251","2.0.0","271694","pn6xyglvp42","null","<p style=""border: 5px solid green;"">Correct!</p>","null","","",""
"","","","","","html-keyboard-response","252","2.0.0","272697","pn6xyglvp42","null","<div style=""font-size: 75px;"">+</div>","null","","",""
"","","","","","image-keyboard-response","253","2.0.0","273130","pn6xyglvp42","430","stimuli/43_100_R.jpg","f","response","j","false"
"","","","","","html-keyboard-response","254","2.0.0","273632","pn6xyglvp42","null","<p style=""border: 5px solid red;"">Incorrect.</p>","null","","",""
"","","","","","html-keyboard-response","255","2.0.0","274635","pn6xyglvp42","null","<div style=""font-size: 75px;"">+</div>","null","","",""
"","","","","","image-keyboard-response","256","2.0.0","275055","pn6xyglvp42","418","stimuli/31_100_R.jpg","f","response","j","false"
"","","","","","html-keyboard-response","257","2.0.0","275557","pn6xyglvp42","null","<p style=""border: 5px solid red;"">Incorrect.</p>","null","","",""
"","","","","","html-keyboard-response","258","2.0.0","276560","pn6xyglvp42","null","<div style=""font-size: 75px;"">+</div>","null","","",""
"","","","","","image-keyboard-response","259","2.0.0","276575","pn6xyglvp42","14","stimuli/36_50.jpg","j","response","f","false"
"","","","","","html-keyboard-response","260","2.0.0","277077","pn6xyglvp42","null","<p style=""border: 5px solid red;"">Incorrect.</p>","null","","",""
"","","","","","html-keyboard-response","261","2.0.0","278079","pn6xyglvp42","null","<div style=""font-size: 75px;"">+</div>","null","","",""
"","","","","","image-keyboard-response","262","2.0.0","278778","pn6xyglvp42","697","stimuli/12_150_R.jpg","j","response","j","true"
"","","","","","html-keyboard-response","263","2.0.0","278805","pn6xyglvp42","26","<p style=""border: 5px solid green;"">Correct!</p>","f","","",""
"","","","","","html-keyboard-response","264","2.0.0","279807","pn6xyglvp42","null","<div style=""font-size: 75px;"">+</div>","null","","",""
"","","","","","image-keyboard-response","265","2.0.0","280541","pn6xyglvp42","732","stimuli/45_100_R.jpg","f","response","j","false"
"","","","","","html-keyboard-response","266","2.0.0","281042","pn6xyglvp42","null","<p style=""border: 5px solid red;"">Incorrect.</p>","null","","",""
"","","","","","html-keyboard-response","267","2.0.0","282044","pn6xyglvp42","null","<div style=""font-size: 75px;"">+</div>","null","","",""
"","","","","","image-keyboard-response","268","2.0.0","282326","pn6xyglvp42","280","stimuli/36_0.jpg","f","response","f","true"
"","","","","","html-keyboard-response","269","2.0.0","282827","pn6xyglvp42","null","<p style=""border: 5px solid green;"">Correct!</p>","null","","",""
"","","","","","html-keyboard-response","270","2.0.0","283829","pn6xyglvp42","null","<div style=""font-size: 75px;"">+</div>","null","","",""
"","","","","","image-keyboard-response","271","2.0.0","284359","pn6xyglvp42","528","stimuli/19_0_R.jpg","f","response","j","false"
"","","","","","html-keyboard-response","272","2.0.0","284861","pn6xyglvp42","null","<p style=""border: 5px solid red;"">Incorrect.</p>","null","","",""
"","","","","","html-keyboard-response","273","2.0.0","285863","pn6xyglvp42","null","<div style=""font-size: 75px;"">+</div>","null","","",""
"","","","","","image-keyboard-response","274","2.0.0","286900","pn6xyglvp42","1034","stimuli/13_100.jpg","j","response","f","false"
"","","","","","html-keyboard-response","275","2.0.0","287402","pn6xyglvp42","null","<p style=""border: 5px solid red;"">Incorrect.</p>","null","","",""
"","","","","","html-keyboard-response","276","2.0.0","288405","pn6xyglvp42","null","<div style=""font-size: 75px;"">+</div>","null","","",""
"","","","","","image-keyboard-response","277","2.0.0","288737","pn6xyglvp42","330","stimuli/9_150.jpg","f","response","f","true"
"","","","","","html-keyboard-response","278","2.0.0","289239","pn6xyglvp42","null","<p style=""border: 5px solid green;"">Correct!</p>","null","","",""
"","","","","","html-keyboard-response","279","2.0.0","290242","pn6xyglvp42","null","<div style=""font-size: 75px;"">+</div>","null","","",""
"","","","","","image-keyboard-response","280","2.0.0","291225","pn6xyglvp42","981","stimuli/9_0_R.jpg","j","response","j","true"
"","","","","","html-keyboard-response","281","2.0.0","291727","pn6xyglvp42","null","<p style=""border: 5px solid green;"">Correct!</p>","null","","",""
"","","","","","html-keyboard-response","282","2.0.0","292730","pn6xyglvp42","null","<div style=""font-size: 75px;"">+</div>","null","","",""
"","","","","","image-keyboard-response","283","2.0.0","293384","pn6xyglvp42","652","stimuli/16_0.jpg","f","response","f","true"
"","","","","","html-keyboard-response","284","2.0.0","293887","pn6xyglvp42","null","<p style=""border: 5px solid green;"">Correct!</p>","null","","",""
"","","","","","html-keyboard-response","285","2.0.0","294889","pn6xyglvp42","null","<div style=""font-size: 75px;"">+</div>","null","","",""
"","","","","","image-keyboard-response","286","2.0.0","295305","pn6xyglvp42","414","stimuli/43_100.jpg","j","response","f","false"
"","","","","","html-keyboard-response","287","2.0.0","295808","pn6xyglvp42","null","<p style=""border: 5px solid red;"">Incorrect.</p>","null","","",""
"","","","","","html-keyboard-response","288","2.0.0","296811","pn6xyglvp42","null","<div style=""font-size: 75px;"">+</div>","null","","",""
"","","","","","image-keyboard-response","289","2.0.0","296838","pn6xyglvp42","25","stimuli/13_50.jpg","f","response","f","true"
"","","","","","html-keyboard-response","290","2.0.0","297340","pn6xyglvp42","null","<p style=""border: 5px solid green;"">Correct!</p>","null","","",""
"","","","","","html-keyboard-response","291","2.0.0","298343","pn6xyglvp42","null","<div style=""font-size: 75px;"">+</div>","null","","",""
"","","","","","image-keyboard-response","292","2.0.0","298773","pn6xyglvp42","428","stimuli/29_100_R.jpg","j","response","j","true"
"","","","","","html-keyboard-response","293","2.0.0","299275","pn6xyglvp42","null","<p style=""border: 5px solid green;"">Correct!</p>","null","","",""
"","","","","","html-keyboard-response","294","2.0.0","300264","pn6xyglvp42","988","<p>Thank you for participating!</p><p>Please press space to answer our survey.</p>"," ","","",""
"","","","","","survey-html-form","295","null","383584","pn6xyglvp42","83316","","{""response_1"":""Perfectly clear and lively as real seeing"",""response_2"":""Moderately clear and lively"",""response_3"":""Moderately clear and lively"",""response_4"":""Perfectly clear and lively as real seeing"",""response_5"":""Moderately clear and lively"",""response_6"":""Moderately clear and lively"",""response_7"":""Moderately clear and lively"",""response_8"":""Moderately clear and lively"",""response_9"":""Clear and lively"",""response_10"":""Moderately clear and lively"",""response_11"":""Dim and vague; flat"",""response_12"":""Moderately clear and lively"",""response_13"":""Clear and lively"",""response_14"":""Perfectly clear and lively as real seeing"",""response_15"":""Moderately clear and lively"",""response_16"":""Moderately clear and lively""}","","",""
"","","","","","survey-html-form","296","null","413771","pn6xyglvp42","30185","","{""age"":""18"",""gender"":""male"",""education"":""high-school"",""handedness"":""right"",""vision"":""normal"",""technical_difficulties"":""No"",""knowledge_check"":""Visualization ability""}","","",""
