"success","timeout","failed_images","failed_audio","failed_video","trial_type","trial_index","plugin_version","time_elapsed","random_id","rt","stimulus","response","task","correct_response","correct"
"true","false","[]","[]","[]","preload","0","2.0.0","7627","pnm61m43x0q","","","","","",""
"true","","","","","fullscreen","1","2.0.0","9985","pnm61m43x0q","1353","","","","",""
"","","","","","html-keyboard-response","2","2.0.0","11127","pnm61m43x0q","1140","Welcome to the experiment. Press any key to begin."," ","","",""
"","","","","","survey-text","3","2.0.0","14396","pnm61m43x0q","3264","","{""participant_id"":""kangaroo""}","","",""
"","","","","","html-keyboard-response","4","2.0.0","38853","pnm61m43x0q","24456","
        <p>Welcome to the experiment.</p>
        <p>In this task, you will see pairs of images.</p>
        <p>Your job is to determine whether the image on the right is a rotated version of the image on the left.</p>
        <p>Press the <strong>F</strong> key if the images are the same.</p>
        <p>Press the <strong>J</strong> key if the images are different.</p>
        <p>Press any key to begin.</p>
    "," ","","",""
"","","","","","html-keyboard-response","5","2.0.0","39857","pnm61m43x0q","null","<div style=""font-size: 75px;"">+</div>","null","","",""
"","","","","","image-keyboard-response","6","2.0.0","47373","pnm61m43x0q","7512","stimuli/14_50_R.jpg","f","response","j","false"
"","","","","","html-keyboard-response","7","2.0.0","47877","pnm61m43x0q","null","<p style=""border: 5px solid red;"">Incorrect.</p>","null","","",""
"","","","","","html-keyboard-response","8","2.0.0","48880","pnm61m43x0q","null","<div style=""font-size: 75px;"">+</div>","null","","",""
"","","","","","image-keyboard-response","9","2.0.0","62692","pnm61m43x0q","13809","stimuli/4_50_R.jpg","f","response","j","false"
"","","","","","html-keyboard-response","10","2.0.0","63195","pnm61m43x0q","null","<p style=""border: 5px solid red;"">Incorrect.</p>","null","","",""
"","","","","","html-keyboard-response","11","2.0.0","64198","pnm61m43x0q","null","<div style=""font-size: 75px;"">+</div>","null","","",""
"","","","","","image-keyboard-response","12","2.0.0","80981","pnm61m43x0q","16780","stimuli/17_150_R.jpg","j","response","j","true"
"","","","","","html-keyboard-response","13","2.0.0","81483","pnm61m43x0q","null","<p style=""border: 5px solid green;"">Correct!</p>","null","","",""
"","","","","","html-keyboard-response","14","2.0.0","82487","pnm61m43x0q","null","<div style=""font-size: 75px;"">+</div>","null","","",""
"","","","","","image-keyboard-response","15","2.0.0","99948","pnm61m43x0q","17458","stimuli/47_100.jpg","f","response","f","true"
"","","","","","html-keyboard-response","16","2.0.0","100450","pnm61m43x0q","null","<p style=""border: 5px solid green;"">Correct!</p>","null","","",""
"","","","","","html-keyboard-response","17","2.0.0","101454","pnm61m43x0q","null","<div style=""font-size: 75px;"">+</div>","null","","",""
"","","","","","image-keyboard-response","18","2.0.0","108178","pnm61m43x0q","6722","stimuli/27_50.jpg","f","response","f","true"
"","","","","","html-keyboard-response","19","2.0.0","108681","pnm61m43x0q","null","<p style=""border: 5px solid green;"">Correct!</p>","null","","",""
"","","","","","html-keyboard-response","20","2.0.0","109684","pnm61m43x0q","null","<div style=""font-size: 75px;"">+</div>","null","","",""
"","","","","","image-keyboard-response","21","2.0.0","120480","pnm61m43x0q","10793","stimuli/19_50.jpg","f","response","f","true"
"","","","","","html-keyboard-response","22","2.0.0","120982","pnm61m43x0q","null","<p style=""border: 5px solid green;"">Correct!</p>","null","","",""
"","","","","","html-keyboard-response","23","2.0.0","121985","pnm61m43x0q","null","<div style=""font-size: 75px;"">+</div>","null","","",""
"","","","","","image-keyboard-response","24","2.0.0","129453","pnm61m43x0q","7465","stimuli/2_50.jpg","f","response","f","true"
"","","","","","html-keyboard-response","25","2.0.0","129955","pnm61m43x0q","null","<p style=""border: 5px solid green;"">Correct!</p>","null","","",""
"","","","","","html-keyboard-response","26","2.0.0","130957","pnm61m43x0q","null","<div style=""font-size: 75px;"">+</div>","null","","",""
"","","","","","image-keyboard-response","27","2.0.0","139787","pnm61m43x0q","8827","stimuli/10_50_R.jpg","j","response","j","true"
"","","","","","html-keyboard-response","28","2.0.0","140289","pnm61m43x0q","null","<p style=""border: 5px solid green;"">Correct!</p>","null","","",""
"","","","","","html-keyboard-response","29","2.0.0","141292","pnm61m43x0q","null","<div style=""font-size: 75px;"">+</div>","null","","",""
"","","","","","image-keyboard-response","30","2.0.0","147130","pnm61m43x0q","5836","stimuli/37_0.jpg","f","response","f","true"
"","","","","","html-keyboard-response","31","2.0.0","147633","pnm61m43x0q","null","<p style=""border: 5px solid green;"">Correct!</p>","null","","",""
"","","","","","html-keyboard-response","32","2.0.0","148635","pnm61m43x0q","null","<div style=""font-size: 75px;"">+</div>","null","","",""
"","","","","","image-keyboard-response","33","2.0.0","168593","pnm61m43x0q","19955","stimuli/35_50_R.jpg","j","response","j","true"
"","","","","","html-keyboard-response","34","2.0.0","169095","pnm61m43x0q","null","<p style=""border: 5px solid green;"">Correct!</p>","null","","",""
"","","","","","html-keyboard-response","35","2.0.0","170098","pnm61m43x0q","null","<div style=""font-size: 75px;"">+</div>","null","","",""
"","","","","","image-keyboard-response","36","2.0.0","178427","pnm61m43x0q","8327","stimuli/10_100.jpg","f","response","f","true"
"","","","","","html-keyboard-response","37","2.0.0","178929","pnm61m43x0q","null","<p style=""border: 5px solid green;"">Correct!</p>","null","","",""
"","","","","","html-keyboard-response","38","2.0.0","179932","pnm61m43x0q","null","<div style=""font-size: 75px;"">+</div>","null","","",""
"","","","","","image-keyboard-response","39","2.0.0","187979","pnm61m43x0q","8045","stimuli/40_100.jpg","f","response","f","true"
"","","","","","html-keyboard-response","40","2.0.0","188482","pnm61m43x0q","null","<p style=""border: 5px solid green;"">Correct!</p>","null","","",""
"","","","","","html-keyboard-response","41","2.0.0","189485","pnm61m43x0q","null","<div style=""font-size: 75px;"">+</div>","null","","",""
"","","","","","image-keyboard-response","42","2.0.0","203288","pnm61m43x0q","13801","stimuli/32_50.jpg","f","response","f","true"
"","","","","","html-keyboard-response","43","2.0.0","203790","pnm61m43x0q","null","<p style=""border: 5px solid green;"">Correct!</p>","null","","",""
"","","","","","html-keyboard-response","44","2.0.0","204794","pnm61m43x0q","null","<div style=""font-size: 75px;"">+</div>","null","","",""
"","","","","","image-keyboard-response","45","2.0.0","215260","pnm61m43x0q","10464","stimuli/14_0_R.jpg","j","response","j","true"
"","","","","","html-keyboard-response","46","2.0.0","215762","pnm61m43x0q","null","<p style=""border: 5px solid green;"">Correct!</p>","null","","",""
"","","","","","html-keyboard-response","47","2.0.0","216765","pnm61m43x0q","null","<div style=""font-size: 75px;"">+</div>","null","","",""
"","","","","","image-keyboard-response","48","2.0.0","222143","pnm61m43x0q","5375","stimuli/28_0_R.jpg","j","response","j","true"
"","","","","","html-keyboard-response","49","2.0.0","222646","pnm61m43x0q","null","<p style=""border: 5px solid green;"">Correct!</p>","null","","",""
"","","","","","html-keyboard-response","50","2.0.0","223648","pnm61m43x0q","null","<div style=""font-size: 75px;"">+</div>","null","","",""
"","","","","","image-keyboard-response","51","2.0.0","228430","pnm61m43x0q","4779","stimuli/16_0.jpg","f","response","f","true"
"","","","","","html-keyboard-response","52","2.0.0","228932","pnm61m43x0q","null","<p style=""border: 5px solid green;"">Correct!</p>","null","","",""
"","","","","","html-keyboard-response","53","2.0.0","229934","pnm61m43x0q","null","<div style=""font-size: 75px;"">+</div>","null","","",""
"","","","","","image-keyboard-response","54","2.0.0","235963","pnm61m43x0q","6026","stimuli/8_150.jpg","f","response","f","true"
"","","","","","html-keyboard-response","55","2.0.0","236466","pnm61m43x0q","null","<p style=""border: 5px solid green;"">Correct!</p>","null","","",""
"","","","","","html-keyboard-response","56","2.0.0","237469","pnm61m43x0q","null","<div style=""font-size: 75px;"">+</div>","null","","",""
"","","","","","image-keyboard-response","57","2.0.0","246091","pnm61m43x0q","8620","stimuli/40_100_R.jpg","j","response","j","true"
"","","","","","html-keyboard-response","58","2.0.0","246593","pnm61m43x0q","null","<p style=""border: 5px solid green;"">Correct!</p>","null","","",""
"","","","","","html-keyboard-response","59","2.0.0","247597","pnm61m43x0q","null","<div style=""font-size: 75px;"">+</div>","null","","",""
"","","","","","image-keyboard-response","60","2.0.0","267883","pnm61m43x0q","20285","stimuli/9_0.jpg","f","response","f","true"
"","","","","","html-keyboard-response","61","2.0.0","268385","pnm61m43x0q","null","<p style=""border: 5px solid green;"">Correct!</p>","null","","",""
"","","","","","html-keyboard-response","62","2.0.0","269389","pnm61m43x0q","null","<div style=""font-size: 75px;"">+</div>","null","","",""
"","","","","","image-keyboard-response","63","2.0.0","273486","pnm61m43x0q","4095","stimuli/34_0_R.jpg","j","response","j","true"
"","","","","","html-keyboard-response","64","2.0.0","273988","pnm61m43x0q","null","<p style=""border: 5px solid green;"">Correct!</p>","null","","",""
"","","","","","html-keyboard-response","65","2.0.0","274991","pnm61m43x0q","null","<div style=""font-size: 75px;"">+</div>","null","","",""
"","","","","","image-keyboard-response","66","2.0.0","279787","pnm61m43x0q","4794","stimuli/15_150.jpg","f","response","f","true"
"","","","","","html-keyboard-response","67","2.0.0","280290","pnm61m43x0q","null","<p style=""border: 5px solid green;"">Correct!</p>","null","","",""
"","","","","","html-keyboard-response","68","2.0.0","281292","pnm61m43x0q","null","<div style=""font-size: 75px;"">+</div>","null","","",""
"","","","","","image-keyboard-response","69","2.0.0","291654","pnm61m43x0q","10359","stimuli/25_150_R.jpg","j","response","j","true"
"","","","","","html-keyboard-response","70","2.0.0","292157","pnm61m43x0q","null","<p style=""border: 5px solid green;"">Correct!</p>","null","","",""
"","","","","","html-keyboard-response","71","2.0.0","293160","pnm61m43x0q","null","<div style=""font-size: 75px;"">+</div>","null","","",""
"","","","","","image-keyboard-response","72","2.0.0","305257","pnm61m43x0q","12095","stimuli/6_150.jpg","f","response","f","true"
"","","","","","html-keyboard-response","73","2.0.0","305760","pnm61m43x0q","null","<p style=""border: 5px solid green;"">Correct!</p>","null","","",""
"","","","","","html-keyboard-response","74","2.0.0","306763","pnm61m43x0q","null","<div style=""font-size: 75px;"">+</div>","null","","",""
"","","","","","image-keyboard-response","75","2.0.0","310758","pnm61m43x0q","3992","stimuli/37_150.jpg","f","response","f","true"
"","","","","","html-keyboard-response","76","2.0.0","311260","pnm61m43x0q","null","<p style=""border: 5px solid green;"">Correct!</p>","null","","",""
"","","","","","html-keyboard-response","77","2.0.0","312263","pnm61m43x0q","null","<div style=""font-size: 75px;"">+</div>","null","","",""
"","","","","","image-keyboard-response","78","2.0.0","315401","pnm61m43x0q","3135","stimuli/38_0_R.jpg","j","response","j","true"
"","","","","","html-keyboard-response","79","2.0.0","315903","pnm61m43x0q","null","<p style=""border: 5px solid green;"">Correct!</p>","null","","",""
"","","","","","html-keyboard-response","80","2.0.0","316906","pnm61m43x0q","null","<div style=""font-size: 75px;"">+</div>","null","","",""
"","","","","","image-keyboard-response","81","2.0.0","318280","pnm61m43x0q","1371","stimuli/11_0.jpg","f","response","f","true"
"","","","","","html-keyboard-response","82","2.0.0","318782","pnm61m43x0q","null","<p style=""border: 5px solid green;"">Correct!</p>","null","","",""
"","","","","","html-keyboard-response","83","2.0.0","319784","pnm61m43x0q","null","<div style=""font-size: 75px;"">+</div>","null","","",""
"","","","","","image-keyboard-response","84","2.0.0","323691","pnm61m43x0q","3905","stimuli/7_100.jpg","f","response","f","true"
"","","","","","html-keyboard-response","85","2.0.0","324194","pnm61m43x0q","null","<p style=""border: 5px solid green;"">Correct!</p>","null","","",""
"","","","","","html-keyboard-response","86","2.0.0","325197","pnm61m43x0q","null","<div style=""font-size: 75px;"">+</div>","null","","",""
"","","","","","image-keyboard-response","87","2.0.0","329106","pnm61m43x0q","3906","stimuli/7_150_R.jpg","j","response","j","true"
"","","","","","html-keyboard-response","88","2.0.0","329608","pnm61m43x0q","null","<p style=""border: 5px solid green;"">Correct!</p>","null","","",""
"","","","","","html-keyboard-response","89","2.0.0","330612","pnm61m43x0q","null","<div style=""font-size: 75px;"">+</div>","null","","",""
"","","","","","image-keyboard-response","90","2.0.0","333324","pnm61m43x0q","2710","stimuli/34_50.jpg","j","response","f","false"
"","","","","","html-keyboard-response","91","2.0.0","333826","pnm61m43x0q","null","<p style=""border: 5px solid red;"">Incorrect.</p>","null","","",""
"","","","","","html-keyboard-response","92","2.0.0","334830","pnm61m43x0q","null","<div style=""font-size: 75px;"">+</div>","null","","",""
"","","","","","image-keyboard-response","93","2.0.0","338065","pnm61m43x0q","3233","stimuli/14_150.jpg","f","response","f","true"
"","","","","","html-keyboard-response","94","2.0.0","338567","pnm61m43x0q","null","<p style=""border: 5px solid green;"">Correct!</p>","null","","",""
"","","","","","html-keyboard-response","95","2.0.0","339570","pnm61m43x0q","null","<div style=""font-size: 75px;"">+</div>","null","","",""
"","","","","","image-keyboard-response","96","2.0.0","342181","pnm61m43x0q","2608","stimuli/4_50.jpg","f","response","f","true"
"","","","","","html-keyboard-response","97","2.0.0","342684","pnm61m43x0q","null","<p style=""border: 5px solid green;"">Correct!</p>","null","","",""
"","","","","","html-keyboard-response","98","2.0.0","343687","pnm61m43x0q","null","<div style=""font-size: 75px;"">+</div>","null","","",""
"","","","","","image-keyboard-response","99","2.0.0","348065","pnm61m43x0q","4376","stimuli/45_100_R.jpg","j","response","j","true"
"","","","","","html-keyboard-response","100","2.0.0","348567","pnm61m43x0q","null","<p style=""border: 5px solid green;"">Correct!</p>","null","","",""
"","","","","","html-keyboard-response","101","2.0.0","349570","pnm61m43x0q","null","<div style=""font-size: 75px;"">+</div>","null","","",""
"","","","","","image-keyboard-response","102","2.0.0","354251","pnm61m43x0q","4678","stimuli/44_50_R.jpg","j","response","j","true"
"","","","","","html-keyboard-response","103","2.0.0","354753","pnm61m43x0q","null","<p style=""border: 5px solid green;"">Correct!</p>","null","","",""
"","","","","","html-keyboard-response","104","2.0.0","355755","pnm61m43x0q","null","<div style=""font-size: 75px;"">+</div>","null","","",""
"","","","","","image-keyboard-response","105","2.0.0","359648","pnm61m43x0q","3890","stimuli/45_0_R.jpg","j","response","j","true"
"","","","","","html-keyboard-response","106","2.0.0","360150","pnm61m43x0q","null","<p style=""border: 5px solid green;"">Correct!</p>","null","","",""
"","","","","","html-keyboard-response","107","2.0.0","361153","pnm61m43x0q","null","<div style=""font-size: 75px;"">+</div>","null","","",""
"","","","","","image-keyboard-response","108","2.0.0","363573","pnm61m43x0q","2417","stimuli/43_0_R.jpg","j","response","j","true"
"","","","","","html-keyboard-response","109","2.0.0","364075","pnm61m43x0q","null","<p style=""border: 5px solid green;"">Correct!</p>","null","","",""
"","","","","","html-keyboard-response","110","2.0.0","365078","pnm61m43x0q","null","<div style=""font-size: 75px;"">+</div>","null","","",""
"","","","","","image-keyboard-response","111","2.0.0","368602","pnm61m43x0q","3521","stimuli/11_150_R.jpg","j","response","j","true"
"","","","","","html-keyboard-response","112","2.0.0","369104","pnm61m43x0q","null","<p style=""border: 5px solid green;"">Correct!</p>","null","","",""
"","","","","","html-keyboard-response","113","2.0.0","370106","pnm61m43x0q","null","<div style=""font-size: 75px;"">+</div>","null","","",""
"","","","","","image-keyboard-response","114","2.0.0","384209","pnm61m43x0q","14100","stimuli/38_150_R.jpg","j","response","j","true"
"","","","","","html-keyboard-response","115","2.0.0","384712","pnm61m43x0q","null","<p style=""border: 5px solid green;"">Correct!</p>","null","","",""
"","","","","","html-keyboard-response","116","2.0.0","385714","pnm61m43x0q","null","<div style=""font-size: 75px;"">+</div>","null","","",""
"","","","","","image-keyboard-response","117","2.0.0","387287","pnm61m43x0q","1571","stimuli/19_0_R.jpg","j","response","j","true"
"","","","","","html-keyboard-response","118","2.0.0","387790","pnm61m43x0q","null","<p style=""border: 5px solid green;"">Correct!</p>","null","","",""
"","","","","","html-keyboard-response","119","2.0.0","388793","pnm61m43x0q","null","<div style=""font-size: 75px;"">+</div>","null","","",""
"","","","","","image-keyboard-response","120","2.0.0","391830","pnm61m43x0q","3035","stimuli/37_50.jpg","f","response","f","true"
"","","","","","html-keyboard-response","121","2.0.0","392333","pnm61m43x0q","null","<p style=""border: 5px solid green;"">Correct!</p>","null","","",""
"","","","","","html-keyboard-response","122","2.0.0","393335","pnm61m43x0q","null","<div style=""font-size: 75px;"">+</div>","null","","",""
"","","","","","image-keyboard-response","123","2.0.0","395891","pnm61m43x0q","2553","stimuli/38_100.jpg","f","response","f","true"
"","","","","","html-keyboard-response","124","2.0.0","396393","pnm61m43x0q","null","<p style=""border: 5px solid green;"">Correct!</p>","null","","",""
"","","","","","html-keyboard-response","125","2.0.0","397396","pnm61m43x0q","null","<div style=""font-size: 75px;"">+</div>","null","","",""
"","","","","","image-keyboard-response","126","2.0.0","398975","pnm61m43x0q","1577","stimuli/20_50.jpg","f","response","f","true"
"","","","","","html-keyboard-response","127","2.0.0","399477","pnm61m43x0q","null","<p style=""border: 5px solid green;"">Correct!</p>","null","","",""
"","","","","","html-keyboard-response","128","2.0.0","400480","pnm61m43x0q","null","<div style=""font-size: 75px;"">+</div>","null","","",""
"","","","","","image-keyboard-response","129","2.0.0","402833","pnm61m43x0q","2351","stimuli/15_150_R.jpg","j","response","j","true"
"","","","","","html-keyboard-response","130","2.0.0","403336","pnm61m43x0q","null","<p style=""border: 5px solid green;"">Correct!</p>","null","","",""
"","","","","","html-keyboard-response","131","2.0.0","404339","pnm61m43x0q","null","<div style=""font-size: 75px;"">+</div>","null","","",""
"","","","","","image-keyboard-response","132","2.0.0","405904","pnm61m43x0q","1563","stimuli/48_0.jpg","f","response","f","true"
"","","","","","html-keyboard-response","133","2.0.0","406406","pnm61m43x0q","null","<p style=""border: 5px solid green;"">Correct!</p>","null","","",""
"","","","","","html-keyboard-response","134","2.0.0","407409","pnm61m43x0q","null","<div style=""font-size: 75px;"">+</div>","null","","",""
"","","","","","image-keyboard-response","135","2.0.0","409579","pnm61m43x0q","2167","stimuli/21_150.jpg","f","response","f","true"
"","","","","","html-keyboard-response","136","2.0.0","410081","pnm61m43x0q","null","<p style=""border: 5px solid green;"">Correct!</p>","null","","",""
"","","","","","html-keyboard-response","137","2.0.0","411084","pnm61m43x0q","null","<div style=""font-size: 75px;"">+</div>","null","","",""
"","","","","","image-keyboard-response","138","2.0.0","414946","pnm61m43x0q","3860","stimuli/36_50_R.jpg","j","response","j","true"
"","","","","","html-keyboard-response","139","2.0.0","415449","pnm61m43x0q","null","<p style=""border: 5px solid green;"">Correct!</p>","null","","",""
"","","","","","html-keyboard-response","140","2.0.0","416451","pnm61m43x0q","null","<div style=""font-size: 75px;"">+</div>","null","","",""
"","","","","","image-keyboard-response","141","2.0.0","421277","pnm61m43x0q","4824","stimuli/20_150.jpg","f","response","f","true"
"","","","","","html-keyboard-response","142","2.0.0","421779","pnm61m43x0q","null","<p style=""border: 5px solid green;"">Correct!</p>","null","","",""
"","","","","","html-keyboard-response","143","2.0.0","422782","pnm61m43x0q","null","<div style=""font-size: 75px;"">+</div>","null","","",""
"","","","","","image-keyboard-response","144","2.0.0","424949","pnm61m43x0q","2164","stimuli/19_100_R.jpg","j","response","j","true"
"","","","","","html-keyboard-response","145","2.0.0","425451","pnm61m43x0q","null","<p style=""border: 5px solid green;"">Correct!</p>","null","","",""
"","","","","","html-keyboard-response","146","2.0.0","426454","pnm61m43x0q","null","<div style=""font-size: 75px;"">+</div>","null","","",""
"","","","","","image-keyboard-response","147","2.0.0","428238","pnm61m43x0q","1781","stimuli/14_100.jpg","f","response","f","true"
"","","","","","html-keyboard-response","148","2.0.0","428739","pnm61m43x0q","null","<p style=""border: 5px solid green;"">Correct!</p>","null","","",""
"","","","","","html-keyboard-response","149","2.0.0","458743","pnm61m43x0q","null","<p> Take a break! Experiment continues in 30 seconds . </p>","null","","",""
"","","","","","html-keyboard-response","150","2.0.0","459746","pnm61m43x0q","null","<div style=""font-size: 75px;"">+</div>","null","","",""
"","","","","","image-keyboard-response","151","2.0.0","469255","pnm61m43x0q","9507","stimuli/40_50_R.jpg","j","response","j","true"
"","","","","","html-keyboard-response","152","2.0.0","469758","pnm61m43x0q","null","<p style=""border: 5px solid green;"">Correct!</p>","null","","",""
"","","","","","html-keyboard-response","153","2.0.0","470760","pnm61m43x0q","null","<div style=""font-size: 75px;"">+</div>","null","","",""
"","","","","","image-keyboard-response","154","2.0.0","472920","pnm61m43x0q","2156","stimuli/5_100_R.jpg","j","response","j","true"
"","","","","","html-keyboard-response","155","2.0.0","473421","pnm61m43x0q","null","<p style=""border: 5px solid green;"">Correct!</p>","null","","",""
"","","","","","html-keyboard-response","156","2.0.0","474424","pnm61m43x0q","null","<div style=""font-size: 75px;"">+</div>","null","","",""
"","","","","","image-keyboard-response","157","2.0.0","475598","pnm61m43x0q","1171","stimuli/15_0.jpg","f","response","f","true"
"","","","","","html-keyboard-response","158","2.0.0","476099","pnm61m43x0q","null","<p style=""border: 5px solid green;"">Correct!</p>","null","","",""
"","","","","","html-keyboard-response","159","2.0.0","477103","pnm61m43x0q","null","<div style=""font-size: 75px;"">+</div>","null","","",""
"","","","","","image-keyboard-response","160","2.0.0","479712","pnm61m43x0q","2607","stimuli/9_100_R.jpg","j","response","j","true"
"","","","","","html-keyboard-response","161","2.0.0","480215","pnm61m43x0q","null","<p style=""border: 5px solid green;"">Correct!</p>","null","","",""
"","","","","","html-keyboard-response","162","2.0.0","481218","pnm61m43x0q","null","<div style=""font-size: 75px;"">+</div>","null","","",""
"","","","","","image-keyboard-response","163","2.0.0","483144","pnm61m43x0q","1923","stimuli/26_100_R.jpg","j","response","j","true"
"","","","","","html-keyboard-response","164","2.0.0","483646","pnm61m43x0q","null","<p style=""border: 5px solid green;"">Correct!</p>","null","","",""
"","","","","","html-keyboard-response","165","2.0.0","484650","pnm61m43x0q","null","<div style=""font-size: 75px;"">+</div>","null","","",""
"","","","","","image-keyboard-response","166","2.0.0","487028","pnm61m43x0q","2376","stimuli/39_50.jpg","f","response","f","true"
"","","","","","html-keyboard-response","167","2.0.0","487530","pnm61m43x0q","null","<p style=""border: 5px solid green;"">Correct!</p>","null","","",""
"","","","","","html-keyboard-response","168","2.0.0","488540","pnm61m43x0q","null","<div style=""font-size: 75px;"">+</div>","null","","",""
"","","","","","image-keyboard-response","169","2.0.0","490462","pnm61m43x0q","1920","stimuli/13_100_R.jpg","j","response","j","true"
"","","","","","html-keyboard-response","170","2.0.0","490965","pnm61m43x0q","null","<p style=""border: 5px solid green;"">Correct!</p>","null","","",""
"","","","","","html-keyboard-response","171","2.0.0","491968","pnm61m43x0q","null","<div style=""font-size: 75px;"">+</div>","null","","",""
"","","","","","image-keyboard-response","172","2.0.0","493893","pnm61m43x0q","1922","stimuli/4_0_R.jpg","j","response","j","true"
"","","","","","html-keyboard-response","173","2.0.0","494396","pnm61m43x0q","null","<p style=""border: 5px solid green;"">Correct!</p>","null","","",""
"","","","","","html-keyboard-response","174","2.0.0","495399","pnm61m43x0q","null","<div style=""font-size: 75px;"">+</div>","null","","",""
"","","","","","image-keyboard-response","175","2.0.0","497160","pnm61m43x0q","1759","stimuli/24_50_R.jpg","j","response","j","true"
"","","","","","html-keyboard-response","176","2.0.0","497662","pnm61m43x0q","null","<p style=""border: 5px solid green;"">Correct!</p>","null","","",""
"","","","","","html-keyboard-response","177","2.0.0","498665","pnm61m43x0q","null","<div style=""font-size: 75px;"">+</div>","null","","",""
"","","","","","image-keyboard-response","178","2.0.0","501385","pnm61m43x0q","2717","stimuli/25_150.jpg","j","response","f","false"
"","","","","","html-keyboard-response","179","2.0.0","501887","pnm61m43x0q","null","<p style=""border: 5px solid red;"">Incorrect.</p>","null","","",""
"","","","","","html-keyboard-response","180","2.0.0","502890","pnm61m43x0q","null","<div style=""font-size: 75px;"">+</div>","null","","",""
"","","","","","image-keyboard-response","181","2.0.0","505135","pnm61m43x0q","2243","stimuli/9_150.jpg","j","response","f","false"
"","","","","","html-keyboard-response","182","2.0.0","505637","pnm61m43x0q","null","<p style=""border: 5px solid red;"">Incorrect.</p>","null","","",""
"","","","","","html-keyboard-response","183","2.0.0","506640","pnm61m43x0q","null","<div style=""font-size: 75px;"">+</div>","null","","",""
"","","","","","image-keyboard-response","184","2.0.0","507643","pnm61m43x0q","1001","stimuli/38_0.jpg","f","response","f","true"
"","","","","","html-keyboard-response","185","2.0.0","508146","pnm61m43x0q","null","<p style=""border: 5px solid green;"">Correct!</p>","null","","",""
"","","","","","html-keyboard-response","186","2.0.0","509148","pnm61m43x0q","null","<div style=""font-size: 75px;"">+</div>","null","","",""
"","","","","","image-keyboard-response","187","2.0.0","512673","pnm61m43x0q","3523","stimuli/20_150_R.jpg","j","response","j","true"
"","","","","","html-keyboard-response","188","2.0.0","513175","pnm61m43x0q","null","<p style=""border: 5px solid green;"">Correct!</p>","null","","",""
"","","","","","html-keyboard-response","189","2.0.0","514178","pnm61m43x0q","null","<div style=""font-size: 75px;"">+</div>","null","","",""
"","","","","","image-keyboard-response","190","2.0.0","516482","pnm61m43x0q","2302","stimuli/17_0_R.jpg","j","response","j","true"
"","","","","","html-keyboard-response","191","2.0.0","516985","pnm61m43x0q","null","<p style=""border: 5px solid green;"">Correct!</p>","null","","",""
"","","","","","html-keyboard-response","192","2.0.0","517987","pnm61m43x0q","null","<div style=""font-size: 75px;"">+</div>","null","","",""
"","","","","","image-keyboard-response","193","2.0.0","519254","pnm61m43x0q","1265","stimuli/41_0.jpg","f","response","f","true"
"","","","","","html-keyboard-response","194","2.0.0","519756","pnm61m43x0q","null","<p style=""border: 5px solid green;"">Correct!</p>","null","","",""
"","","","","","html-keyboard-response","195","2.0.0","520759","pnm61m43x0q","null","<div style=""font-size: 75px;"">+</div>","null","","",""
"","","","","","image-keyboard-response","196","2.0.0","523500","pnm61m43x0q","2739","stimuli/25_100.jpg","f","response","f","true"
"","","","","","html-keyboard-response","197","2.0.0","524003","pnm61m43x0q","null","<p style=""border: 5px solid green;"">Correct!</p>","null","","",""
"","","","","","html-keyboard-response","198","2.0.0","525006","pnm61m43x0q","null","<div style=""font-size: 75px;"">+</div>","null","","",""
"","","","","","image-keyboard-response","199","2.0.0","526931","pnm61m43x0q","1923","stimuli/1_100.jpg","f","response","f","true"
"","","","","","html-keyboard-response","200","2.0.0","527434","pnm61m43x0q","null","<p style=""border: 5px solid green;"">Correct!</p>","null","","",""
"","","","","","html-keyboard-response","201","2.0.0","528436","pnm61m43x0q","null","<div style=""font-size: 75px;"">+</div>","null","","",""
"","","","","","image-keyboard-response","202","2.0.0","530077","pnm61m43x0q","1639","stimuli/45_100.jpg","f","response","f","true"
"","","","","","html-keyboard-response","203","2.0.0","530579","pnm61m43x0q","null","<p style=""border: 5px solid green;"">Correct!</p>","null","","",""
"","","","","","html-keyboard-response","204","2.0.0","531582","pnm61m43x0q","null","<div style=""font-size: 75px;"">+</div>","null","","",""
"","","","","","image-keyboard-response","205","2.0.0","532717","pnm61m43x0q","1132","stimuli/12_0_R.jpg","j","response","j","true"
"","","","","","html-keyboard-response","206","2.0.0","533220","pnm61m43x0q","null","<p style=""border: 5px solid green;"">Correct!</p>","null","","",""
"","","","","","html-keyboard-response","207","2.0.0","534222","pnm61m43x0q","null","<div style=""font-size: 75px;"">+</div>","null","","",""
"","","","","","image-keyboard-response","208","2.0.0","536209","pnm61m43x0q","1984","stimuli/21_100_R.jpg","j","response","j","true"
"","","","","","html-keyboard-response","209","2.0.0","536712","pnm61m43x0q","null","<p style=""border: 5px solid green;"">Correct!</p>","null","","",""
"","","","","","html-keyboard-response","210","2.0.0","537715","pnm61m43x0q","null","<div style=""font-size: 75px;"">+</div>","null","","",""
"","","","","","image-keyboard-response","211","2.0.0","538556","pnm61m43x0q","838","stimuli/14_0.jpg","f","response","f","true"
"","","","","","html-keyboard-response","212","2.0.0","539058","pnm61m43x0q","null","<p style=""border: 5px solid green;"">Correct!</p>","null","","",""
"","","","","","html-keyboard-response","213","2.0.0","540061","pnm61m43x0q","null","<div style=""font-size: 75px;"">+</div>","null","","",""
"","","","","","image-keyboard-response","214","2.0.0","542101","pnm61m43x0q","2037","stimuli/47_50.jpg","f","response","f","true"
"","","","","","html-keyboard-response","215","2.0.0","542603","pnm61m43x0q","null","<p style=""border: 5px solid green;"">Correct!</p>","null","","",""
"","","","","","html-keyboard-response","216","2.0.0","543606","pnm61m43x0q","null","<div style=""font-size: 75px;"">+</div>","null","","",""
"","","","","","image-keyboard-response","217","2.0.0","546078","pnm61m43x0q","2469","stimuli/47_50_R.jpg","j","response","j","true"
"","","","","","html-keyboard-response","218","2.0.0","546580","pnm61m43x0q","null","<p style=""border: 5px solid green;"">Correct!</p>","null","","",""
"","","","","","html-keyboard-response","219","2.0.0","547582","pnm61m43x0q","null","<div style=""font-size: 75px;"">+</div>","null","","",""
"","","","","","image-keyboard-response","220","2.0.0","549486","pnm61m43x0q","1901","stimuli/33_100_R.jpg","j","response","j","true"
"","","","","","html-keyboard-response","221","2.0.0","549989","pnm61m43x0q","null","<p style=""border: 5px solid green;"">Correct!</p>","null","","",""
"","","","","","html-keyboard-response","222","2.0.0","550992","pnm61m43x0q","null","<div style=""font-size: 75px;"">+</div>","null","","",""
"","","","","","image-keyboard-response","223","2.0.0","553006","pnm61m43x0q","2012","stimuli/47_150_R.jpg","j","response","j","true"
"","","","","","html-keyboard-response","224","2.0.0","553508","pnm61m43x0q","null","<p style=""border: 5px solid green;"">Correct!</p>","null","","",""
"","","","","","html-keyboard-response","225","2.0.0","554511","pnm61m43x0q","null","<div style=""font-size: 75px;"">+</div>","null","","",""
"","","","","","image-keyboard-response","226","2.0.0","559594","pnm61m43x0q","5080","stimuli/48_0_R.jpg","j","response","j","true"
"","","","","","html-keyboard-response","227","2.0.0","560095","pnm61m43x0q","null","<p style=""border: 5px solid green;"">Correct!</p>","null","","",""
"","","","","","html-keyboard-response","228","2.0.0","561098","pnm61m43x0q","null","<div style=""font-size: 75px;"">+</div>","null","","",""
"","","","","","image-keyboard-response","229","2.0.0","562569","pnm61m43x0q","1469","stimuli/24_150_R.jpg","j","response","j","true"
"","","","","","html-keyboard-response","230","2.0.0","563071","pnm61m43x0q","null","<p style=""border: 5px solid green;"">Correct!</p>","null","","",""
"","","","","","html-keyboard-response","231","2.0.0","564074","pnm61m43x0q","null","<div style=""font-size: 75px;"">+</div>","null","","",""
"","","","","","image-keyboard-response","232","2.0.0","567193","pnm61m43x0q","3117","stimuli/4_150.jpg","f","response","f","true"
"","","","","","html-keyboard-response","233","2.0.0","567696","pnm61m43x0q","null","<p style=""border: 5px solid green;"">Correct!</p>","null","","",""
"","","","","","html-keyboard-response","234","2.0.0","568699","pnm61m43x0q","null","<div style=""font-size: 75px;"">+</div>","null","","",""
"","","","","","image-keyboard-response","235","2.0.0","571458","pnm61m43x0q","2756","stimuli/18_100_R.jpg","j","response","j","true"
"","","","","","html-keyboard-response","236","2.0.0","571960","pnm61m43x0q","null","<p style=""border: 5px solid green;"">Correct!</p>","null","","",""
"","","","","","html-keyboard-response","237","2.0.0","572963","pnm61m43x0q","null","<div style=""font-size: 75px;"">+</div>","null","","",""
"","","","","","image-keyboard-response","238","2.0.0","576499","pnm61m43x0q","3534","stimuli/10_150_R.jpg","j","response","j","true"
"","","","","","html-keyboard-response","239","2.0.0","577001","pnm61m43x0q","null","<p style=""border: 5px solid green;"">Correct!</p>","null","","",""
"","","","","","html-keyboard-response","240","2.0.0","578004","pnm61m43x0q","null","<div style=""font-size: 75px;"">+</div>","null","","",""
"","","","","","image-keyboard-response","241","2.0.0","582690","pnm61m43x0q","4684","stimuli/23_100.jpg","f","response","f","true"
"","","","","","html-keyboard-response","242","2.0.0","583192","pnm61m43x0q","null","<p style=""border: 5px solid green;"">Correct!</p>","null","","",""
"","","","","","html-keyboard-response","243","2.0.0","584195","pnm61m43x0q","null","<div style=""font-size: 75px;"">+</div>","null","","",""
"","","","","","image-keyboard-response","244","2.0.0","585229","pnm61m43x0q","1031","stimuli/45_0.jpg","f","response","f","true"
"","","","","","html-keyboard-response","245","2.0.0","585731","pnm61m43x0q","null","<p style=""border: 5px solid green;"">Correct!</p>","null","","",""
"","","","","","html-keyboard-response","246","2.0.0","586734","pnm61m43x0q","null","<div style=""font-size: 75px;"">+</div>","null","","",""
"","","","","","image-keyboard-response","247","2.0.0","588518","pnm61m43x0q","1781","stimuli/35_50.jpg","j","response","f","false"
"","","","","","html-keyboard-response","248","2.0.0","589020","pnm61m43x0q","null","<p style=""border: 5px solid red;"">Incorrect.</p>","null","","",""
"","","","","","html-keyboard-response","249","2.0.0","590022","pnm61m43x0q","null","<div style=""font-size: 75px;"">+</div>","null","","",""
"","","","","","image-keyboard-response","250","2.0.0","592577","pnm61m43x0q","2553","stimuli/31_150.jpg","j","response","f","false"
"","","","","","html-keyboard-response","251","2.0.0","593080","pnm61m43x0q","null","<p style=""border: 5px solid red;"">Incorrect.</p>","null","","",""
"","","","","","html-keyboard-response","252","2.0.0","594083","pnm61m43x0q","null","<div style=""font-size: 75px;"">+</div>","null","","",""
"","","","","","image-keyboard-response","253","2.0.0","597455","pnm61m43x0q","3370","stimuli/11_100_R.jpg","j","response","j","true"
"","","","","","html-keyboard-response","254","2.0.0","597958","pnm61m43x0q","null","<p style=""border: 5px solid green;"">Correct!</p>","null","","",""
"","","","","","html-keyboard-response","255","2.0.0","598960","pnm61m43x0q","null","<div style=""font-size: 75px;"">+</div>","null","","",""
"","","","","","image-keyboard-response","256","2.0.0","602486","pnm61m43x0q","3524","stimuli/28_150_R.jpg","j","response","j","true"
"","","","","","html-keyboard-response","257","2.0.0","602988","pnm61m43x0q","null","<p style=""border: 5px solid green;"">Correct!</p>","null","","",""
"","","","","","html-keyboard-response","258","2.0.0","603992","pnm61m43x0q","null","<div style=""font-size: 75px;"">+</div>","null","","",""
"","","","","","image-keyboard-response","259","2.0.0","605666","pnm61m43x0q","1672","stimuli/1_0.jpg","f","response","f","true"
"","","","","","html-keyboard-response","260","2.0.0","606168","pnm61m43x0q","null","<p style=""border: 5px solid green;"">Correct!</p>","null","","",""
"","","","","","html-keyboard-response","261","2.0.0","607171","pnm61m43x0q","null","<div style=""font-size: 75px;"">+</div>","null","","",""
"","","","","","image-keyboard-response","262","2.0.0","611050","pnm61m43x0q","3877","stimuli/17_50.jpg","f","response","f","true"
"","","","","","html-keyboard-response","263","2.0.0","611553","pnm61m43x0q","null","<p style=""border: 5px solid green;"">Correct!</p>","null","","",""
"","","","","","html-keyboard-response","264","2.0.0","612556","pnm61m43x0q","null","<div style=""font-size: 75px;"">+</div>","null","","",""
"","","","","","image-keyboard-response","265","2.0.0","615445","pnm61m43x0q","2887","stimuli/32_150.jpg","f","response","f","true"
"","","","","","html-keyboard-response","266","2.0.0","615947","pnm61m43x0q","null","<p style=""border: 5px solid green;"">Correct!</p>","null","","",""
"","","","","","html-keyboard-response","267","2.0.0","616950","pnm61m43x0q","null","<div style=""font-size: 75px;"">+</div>","null","","",""
"","","","","","image-keyboard-response","268","2.0.0","619454","pnm61m43x0q","2501","stimuli/48_50_R.jpg","j","response","j","true"
"","","","","","html-keyboard-response","269","2.0.0","619957","pnm61m43x0q","null","<p style=""border: 5px solid green;"">Correct!</p>","null","","",""
"","","","","","html-keyboard-response","270","2.0.0","620961","pnm61m43x0q","null","<div style=""font-size: 75px;"">+</div>","null","","",""
"","","","","","image-keyboard-response","271","2.0.0","626729","pnm61m43x0q","5766","stimuli/12_100_R.jpg","j","response","j","true"
"","","","","","html-keyboard-response","272","2.0.0","627231","pnm61m43x0q","null","<p style=""border: 5px solid green;"">Correct!</p>","null","","",""
"","","","","","html-keyboard-response","273","2.0.0","628234","pnm61m43x0q","null","<div style=""font-size: 75px;"">+</div>","null","","",""
"","","","","","image-keyboard-response","274","2.0.0","630104","pnm61m43x0q","1868","stimuli/33_50_R.jpg","j","response","j","true"
"","","","","","html-keyboard-response","275","2.0.0","630606","pnm61m43x0q","null","<p style=""border: 5px solid green;"">Correct!</p>","null","","",""
"","","","","","html-keyboard-response","276","2.0.0","631608","pnm61m43x0q","null","<div style=""font-size: 75px;"">+</div>","null","","",""
"","","","","","image-keyboard-response","277","2.0.0","638757","pnm61m43x0q","7147","stimuli/35_100.jpg","f","response","f","true"
"","","","","","html-keyboard-response","278","2.0.0","639259","pnm61m43x0q","null","<p style=""border: 5px solid green;"">Correct!</p>","null","","",""
"","","","","","html-keyboard-response","279","2.0.0","640261","pnm61m43x0q","null","<div style=""font-size: 75px;"">+</div>","null","","",""
"","","","","","image-keyboard-response","280","2.0.0","641443","pnm61m43x0q","1179","stimuli/12_50_R.jpg","j","response","j","true"
"","","","","","html-keyboard-response","281","2.0.0","641944","pnm61m43x0q","null","<p style=""border: 5px solid green;"">Correct!</p>","null","","",""
"","","","","","html-keyboard-response","282","2.0.0","642947","pnm61m43x0q","null","<div style=""font-size: 75px;"">+</div>","null","","",""
"","","","","","image-keyboard-response","283","2.0.0","647125","pnm61m43x0q","4175","stimuli/48_150_R.jpg","j","response","j","true"
"","","","","","html-keyboard-response","284","2.0.0","647626","pnm61m43x0q","null","<p style=""border: 5px solid green;"">Correct!</p>","null","","",""
"","","","","","html-keyboard-response","285","2.0.0","648629","pnm61m43x0q","null","<div style=""font-size: 75px;"">+</div>","null","","",""
"","","","","","image-keyboard-response","286","2.0.0","649743","pnm61m43x0q","1111","stimuli/27_0.jpg","f","response","f","true"
"","","","","","html-keyboard-response","287","2.0.0","650246","pnm61m43x0q","null","<p style=""border: 5px solid green;"">Correct!</p>","null","","",""
"","","","","","html-keyboard-response","288","2.0.0","651249","pnm61m43x0q","null","<div style=""font-size: 75px;"">+</div>","null","","",""
"","","","","","image-keyboard-response","289","2.0.0","653527","pnm61m43x0q","2275","stimuli/27_0_R.jpg","j","response","j","true"
"","","","","","html-keyboard-response","290","2.0.0","654029","pnm61m43x0q","null","<p style=""border: 5px solid green;"">Correct!</p>","null","","",""
"","","","","","html-keyboard-response","291","2.0.0","655032","pnm61m43x0q","null","<div style=""font-size: 75px;"">+</div>","null","","",""
"","","","","","image-keyboard-response","292","2.0.0","656939","pnm61m43x0q","1906","stimuli/15_100.jpg","f","response","f","true"
"","","","","","html-keyboard-response","293","2.0.0","657443","pnm61m43x0q","null","<p style=""border: 5px solid green;"">Correct!</p>","null","","",""
"","","","","","html-keyboard-response","294","2.0.0","659013","pnm61m43x0q","1569","<p>Thank you for participating!</p><p>Please press space to answer our survey.</p>"," ","","",""
"","","","","","survey-html-form","295","null","768811","pnm61m43x0q","109794","","{""response_1"":""Moderately clear and lively"",""response_2"":""Moderately clear and lively"",""response_3"":""Moderately clear and lively"",""response_4"":""Moderately clear and lively"",""response_5"":""Moderately clear and lively"",""response_6"":""Moderately clear and lively"",""response_7"":""Moderately clear and lively"",""response_8"":""Moderately clear and lively"",""response_9"":""Moderately clear and lively"",""response_10"":""Dim and vague; flat"",""response_11"":""Moderately clear and lively"",""response_12"":""Moderately clear and lively"",""response_13"":""Dim and vague; flat"",""response_14"":""Moderately clear and lively"",""response_15"":""Dim and vague; flat"",""response_16"":""Moderately clear and lively""}","","",""
"","","","","","survey-html-form","296","null","807937","pnm61m43x0q","39123","","{""age"":""21"",""gender"":""female"",""education"":""bachelors"",""handedness"":""right"",""vision"":""corrected"",""technical_difficulties"":"""",""knowledge_check"":""How mental rotation affects accuracy of matching two objects.""}","","",""
