"success","timeout","failed_images","failed_audio","failed_video","trial_type","trial_index","plugin_version","time_elapsed","random_id","rt","stimulus","response","task","correct_response","correct"
"true","false","[]","[]","[]","preload","0","2.0.0","2116","pnu5fcemr86","","","","","",""
"true","","","","","fullscreen","1","2.0.0","9013","pnu5fcemr86","5890","","","","",""
"","","","","","html-keyboard-response","2","2.0.0","10505","pnu5fcemr86","1489","Welcome to the experiment. Press any key to begin."," ","","",""
"","","","","","survey-text","3","2.0.0","23261","pnu5fcemr86","12753","","{""participant_id"":""koala""}","","",""
"","","","","","html-keyboard-response","4","2.0.0","50129","pnu5fcemr86","26866","
        <p>Welcome to the experiment.</p>
        <p>In this task, you will see pairs of images.</p>
        <p>Your job is to determine whether the image on the right is a rotated version of the image on the left.</p>
        <p>Press the <strong>F</strong> key if the images are the same.</p>
        <p>Press the <strong>J</strong> key if the images are different.</p>
        <p>Press any key to begin.</p>
    ","f","","",""
"","","","","","html-keyboard-response","5","2.0.0","51141","pnu5fcemr86","null","<div style=""font-size: 75px;"">+</div>","null","","",""
"","","","","","image-keyboard-response","6","2.0.0","56153","pnu5fcemr86","5004","stimuli/8_100.jpg","f","response","f","true"
"","","","","","html-keyboard-response","7","2.0.0","56656","pnu5fcemr86","null","<p style=""border: 5px solid green;"">Correct!</p>","null","","",""
"","","","","","html-keyboard-response","8","2.0.0","57660","pnu5fcemr86","null","<div style=""font-size: 75px;"">+</div>","null","","",""
"","","","","","image-keyboard-response","9","2.0.0","62230","pnu5fcemr86","4566","stimuli/17_100_R.jpg","j","response","j","true"
"","","","","","html-keyboard-response","10","2.0.0","62737","pnu5fcemr86","null","<p style=""border: 5px solid green;"">Correct!</p>","null","","",""
"","","","","","html-keyboard-response","11","2.0.0","63749","pnu5fcemr86","null","<div style=""font-size: 75px;"">+</div>","null","","",""
"","","","","","image-keyboard-response","12","2.0.0","68979","pnu5fcemr86","5227","stimuli/14_150.jpg","f","response","f","true"
"","","","","","html-keyboard-response","13","2.0.0","69484","pnu5fcemr86","null","<p style=""border: 5px solid green;"">Correct!</p>","null","","",""
"","","","","","html-keyboard-response","14","2.0.0","70491","pnu5fcemr86","null","<div style=""font-size: 75px;"">+</div>","null","","",""
"","","","","","image-keyboard-response","15","2.0.0","72777","pnu5fcemr86","2283","stimuli/8_150_R.jpg","j","response","j","true"
"","","","","","html-keyboard-response","16","2.0.0","73291","pnu5fcemr86","null","<p style=""border: 5px solid green;"">Correct!</p>","null","","",""
"","","","","","html-keyboard-response","17","2.0.0","74293","pnu5fcemr86","null","<div style=""font-size: 75px;"">+</div>","null","","",""
"","","","","","image-keyboard-response","18","2.0.0","77662","pnu5fcemr86","3365","stimuli/42_50.jpg","f","response","f","true"
"","","","","","html-keyboard-response","19","2.0.0","78168","pnu5fcemr86","null","<p style=""border: 5px solid green;"">Correct!</p>","null","","",""
"","","","","","html-keyboard-response","20","2.0.0","79182","pnu5fcemr86","null","<div style=""font-size: 75px;"">+</div>","null","","",""
"","","","","","image-keyboard-response","21","2.0.0","81660","pnu5fcemr86","2476","stimuli/18_100_R.jpg","j","response","j","true"
"","","","","","html-keyboard-response","22","2.0.0","82175","pnu5fcemr86","null","<p style=""border: 5px solid green;"">Correct!</p>","null","","",""
"","","","","","html-keyboard-response","23","2.0.0","83186","pnu5fcemr86","null","<div style=""font-size: 75px;"">+</div>","null","","",""
"","","","","","image-keyboard-response","24","2.0.0","85659","pnu5fcemr86","2470","stimuli/35_0.jpg","f","response","f","true"
"","","","","","html-keyboard-response","25","2.0.0","86175","pnu5fcemr86","null","<p style=""border: 5px solid green;"">Correct!</p>","null","","",""
"","","","","","html-keyboard-response","26","2.0.0","87188","pnu5fcemr86","null","<div style=""font-size: 75px;"">+</div>","null","","",""
"","","","","","image-keyboard-response","27","2.0.0","88843","pnu5fcemr86","1652","stimuli/32_50_R.jpg","j","response","j","true"
"","","","","","html-keyboard-response","28","2.0.0","89356","pnu5fcemr86","null","<p style=""border: 5px solid green;"">Correct!</p>","null","","",""
"","","","","","html-keyboard-response","29","2.0.0","90362","pnu5fcemr86","null","<div style=""font-size: 75px;"">+</div>","null","","",""
"","","","","","image-keyboard-response","30","2.0.0","92174","pnu5fcemr86","1810","stimuli/16_0_R.jpg","j","response","j","true"
"","","","","","html-keyboard-response","31","2.0.0","92692","pnu5fcemr86","null","<p style=""border: 5px solid green;"">Correct!</p>","null","","",""
"","","","","","html-keyboard-response","32","2.0.0","93707","pnu5fcemr86","null","<div style=""font-size: 75px;"">+</div>","null","","",""
"","","","","","image-keyboard-response","33","2.0.0","96242","pnu5fcemr86","2533","stimuli/19_100.jpg","f","response","f","true"
"","","","","","html-keyboard-response","34","2.0.0","96753","pnu5fcemr86","null","<p style=""border: 5px solid green;"">Correct!</p>","null","","",""
"","","","","","html-keyboard-response","35","2.0.0","97765","pnu5fcemr86","null","<div style=""font-size: 75px;"">+</div>","null","","",""
"","","","","","image-keyboard-response","36","2.0.0","99806","pnu5fcemr86","2039","stimuli/32_100_R.jpg","j","response","j","true"
"","","","","","html-keyboard-response","37","2.0.0","100313","pnu5fcemr86","null","<p style=""border: 5px solid green;"">Correct!</p>","null","","",""
"","","","","","html-keyboard-response","38","2.0.0","101324","pnu5fcemr86","null","<div style=""font-size: 75px;"">+</div>","null","","",""
"","","","","","image-keyboard-response","39","2.0.0","104366","pnu5fcemr86","3040","stimuli/3_100.jpg","f","response","f","true"
"","","","","","html-keyboard-response","40","2.0.0","104882","pnu5fcemr86","null","<p style=""border: 5px solid green;"">Correct!</p>","null","","",""
"","","","","","html-keyboard-response","41","2.0.0","105893","pnu5fcemr86","null","<div style=""font-size: 75px;"">+</div>","null","","",""
"","","","","","image-keyboard-response","42","2.0.0","108118","pnu5fcemr86","2224","stimuli/2_100_R.jpg","j","response","j","true"
"","","","","","html-keyboard-response","43","2.0.0","108632","pnu5fcemr86","null","<p style=""border: 5px solid green;"">Correct!</p>","null","","",""
"","","","","","html-keyboard-response","44","2.0.0","109646","pnu5fcemr86","null","<div style=""font-size: 75px;"">+</div>","null","","",""
"","","","","","image-keyboard-response","45","2.0.0","111657","pnu5fcemr86","2009","stimuli/24_50_R.jpg","j","response","j","true"
"","","","","","html-keyboard-response","46","2.0.0","112162","pnu5fcemr86","null","<p style=""border: 5px solid green;"">Correct!</p>","null","","",""
"","","","","","html-keyboard-response","47","2.0.0","113180","pnu5fcemr86","null","<div style=""font-size: 75px;"">+</div>","null","","",""
"","","","","","image-keyboard-response","48","2.0.0","114458","pnu5fcemr86","1276","stimuli/7_0.jpg","f","response","f","true"
"","","","","","html-keyboard-response","49","2.0.0","114963","pnu5fcemr86","null","<p style=""border: 5px solid green;"">Correct!</p>","null","","",""
"","","","","","html-keyboard-response","50","2.0.0","115974","pnu5fcemr86","null","<div style=""font-size: 75px;"">+</div>","null","","",""
"","","","","","image-keyboard-response","51","2.0.0","117405","pnu5fcemr86","1427","stimuli/48_0.jpg","f","response","f","true"
"","","","","","html-keyboard-response","52","2.0.0","117917","pnu5fcemr86","null","<p style=""border: 5px solid green;"">Correct!</p>","null","","",""
"","","","","","html-keyboard-response","53","2.0.0","118925","pnu5fcemr86","null","<div style=""font-size: 75px;"">+</div>","null","","",""
"","","","","","image-keyboard-response","54","2.0.0","119999","pnu5fcemr86","1073","stimuli/12_0.jpg","f","response","f","true"
"","","","","","html-keyboard-response","55","2.0.0","120507","pnu5fcemr86","null","<p style=""border: 5px solid green;"">Correct!</p>","null","","",""
"","","","","","html-keyboard-response","56","2.0.0","121513","pnu5fcemr86","null","<div style=""font-size: 75px;"">+</div>","null","","",""
"","","","","","image-keyboard-response","57","2.0.0","124418","pnu5fcemr86","2902","stimuli/4_150.jpg","f","response","f","true"
"","","","","","html-keyboard-response","58","2.0.0","124933","pnu5fcemr86","null","<p style=""border: 5px solid green;"">Correct!</p>","null","","",""
"","","","","","html-keyboard-response","59","2.0.0","125942","pnu5fcemr86","null","<div style=""font-size: 75px;"">+</div>","null","","",""
"","","","","","image-keyboard-response","60","2.0.0","128299","pnu5fcemr86","2354","stimuli/6_100_R.jpg","j","response","j","true"
"","","","","","html-keyboard-response","61","2.0.0","128805","pnu5fcemr86","null","<p style=""border: 5px solid green;"">Correct!</p>","null","","",""
"","","","","","html-keyboard-response","62","2.0.0","129813","pnu5fcemr86","null","<div style=""font-size: 75px;"">+</div>","null","","",""
"","","","","","image-keyboard-response","63","2.0.0","130767","pnu5fcemr86","952","stimuli/31_0.jpg","f","response","f","true"
"","","","","","html-keyboard-response","64","2.0.0","131277","pnu5fcemr86","null","<p style=""border: 5px solid green;"">Correct!</p>","null","","",""
"","","","","","html-keyboard-response","65","2.0.0","132291","pnu5fcemr86","null","<div style=""font-size: 75px;"">+</div>","null","","",""
"","","","","","image-keyboard-response","66","2.0.0","133642","pnu5fcemr86","1349","stimuli/27_50_R.jpg","j","response","j","true"
"","","","","","html-keyboard-response","67","2.0.0","134157","pnu5fcemr86","null","<p style=""border: 5px solid green;"">Correct!</p>","null","","",""
"","","","","","html-keyboard-response","68","2.0.0","135170","pnu5fcemr86","null","<div style=""font-size: 75px;"">+</div>","null","","",""
"","","","","","image-keyboard-response","69","2.0.0","139402","pnu5fcemr86","4229","stimuli/26_150.jpg","f","response","f","true"
"","","","","","html-keyboard-response","70","2.0.0","139917","pnu5fcemr86","null","<p style=""border: 5px solid green;"">Correct!</p>","null","","",""
"","","","","","html-keyboard-response","71","2.0.0","140931","pnu5fcemr86","null","<div style=""font-size: 75px;"">+</div>","null","","",""
"","","","","","image-keyboard-response","72","2.0.0","142729","pnu5fcemr86","1795","stimuli/7_150_R.jpg","j","response","j","true"
"","","","","","html-keyboard-response","73","2.0.0","143234","pnu5fcemr86","null","<p style=""border: 5px solid green;"">Correct!</p>","null","","",""
"","","","","","html-keyboard-response","74","2.0.0","144248","pnu5fcemr86","null","<div style=""font-size: 75px;"">+</div>","null","","",""
"","","","","","image-keyboard-response","75","2.0.0","145638","pnu5fcemr86","1386","stimuli/23_50_R.jpg","j","response","j","true"
"","","","","","html-keyboard-response","76","2.0.0","146143","pnu5fcemr86","null","<p style=""border: 5px solid green;"">Correct!</p>","null","","",""
"","","","","","html-keyboard-response","77","2.0.0","147152","pnu5fcemr86","null","<div style=""font-size: 75px;"">+</div>","null","","",""
"","","","","","image-keyboard-response","78","2.0.0","150297","pnu5fcemr86","3141","stimuli/46_50.jpg","f","response","f","true"
"","","","","","html-keyboard-response","79","2.0.0","150801","pnu5fcemr86","null","<p style=""border: 5px solid green;"">Correct!</p>","null","","",""
"","","","","","html-keyboard-response","80","2.0.0","151809","pnu5fcemr86","null","<div style=""font-size: 75px;"">+</div>","null","","",""
"","","","","","image-keyboard-response","81","2.0.0","155888","pnu5fcemr86","4077","stimuli/3_150_R.jpg","j","response","j","true"
"","","","","","html-keyboard-response","82","2.0.0","156401","pnu5fcemr86","null","<p style=""border: 5px solid green;"">Correct!</p>","null","","",""
"","","","","","html-keyboard-response","83","2.0.0","157412","pnu5fcemr86","null","<div style=""font-size: 75px;"">+</div>","null","","",""
"","","","","","image-keyboard-response","84","2.0.0","160822","pnu5fcemr86","3407","stimuli/41_50_R.jpg","j","response","j","true"
"","","","","","html-keyboard-response","85","2.0.0","161337","pnu5fcemr86","null","<p style=""border: 5px solid green;"">Correct!</p>","null","","",""
"","","","","","html-keyboard-response","86","2.0.0","162344","pnu5fcemr86","null","<div style=""font-size: 75px;"">+</div>","null","","",""
"","","","","","image-keyboard-response","87","2.0.0","167633","pnu5fcemr86","5286","stimuli/25_50.jpg","f","response","f","true"
"","","","","","html-keyboard-response","88","2.0.0","168140","pnu5fcemr86","null","<p style=""border: 5px solid green;"">Correct!</p>","null","","",""
"","","","","","html-keyboard-response","89","2.0.0","169149","pnu5fcemr86","null","<div style=""font-size: 75px;"">+</div>","null","","",""
"","","","","","image-keyboard-response","90","2.0.0","171988","pnu5fcemr86","2836","stimuli/9_50.jpg","f","response","f","true"
"","","","","","html-keyboard-response","91","2.0.0","172495","pnu5fcemr86","null","<p style=""border: 5px solid green;"">Correct!</p>","null","","",""
"","","","","","html-keyboard-response","92","2.0.0","173507","pnu5fcemr86","null","<div style=""font-size: 75px;"">+</div>","null","","",""
"","","","","","image-keyboard-response","93","2.0.0","174641","pnu5fcemr86","1131","stimuli/21_0_R.jpg","j","response","j","true"
"","","","","","html-keyboard-response","94","2.0.0","175152","pnu5fcemr86","null","<p style=""border: 5px solid green;"">Correct!</p>","null","","",""
"","","","","","html-keyboard-response","95","2.0.0","176163","pnu5fcemr86","null","<div style=""font-size: 75px;"">+</div>","null","","",""
"","","","","","image-keyboard-response","96","2.0.0","178890","pnu5fcemr86","2724","stimuli/37_100.jpg","j","response","f","false"
"","","","","","html-keyboard-response","97","2.0.0","179397","pnu5fcemr86","null","<p style=""border: 5px solid red;"">Incorrect.</p>","null","","",""
"","","","","","html-keyboard-response","98","2.0.0","180413","pnu5fcemr86","null","<div style=""font-size: 75px;"">+</div>","null","","",""
"","","","","","image-keyboard-response","99","2.0.0","181589","pnu5fcemr86","1172","stimuli/30_0.jpg","f","response","f","true"
"","","","","","html-keyboard-response","100","2.0.0","182104","pnu5fcemr86","null","<p style=""border: 5px solid green;"">Correct!</p>","null","","",""
"","","","","","html-keyboard-response","101","2.0.0","183107","pnu5fcemr86","null","<div style=""font-size: 75px;"">+</div>","null","","",""
"","","","","","image-keyboard-response","102","2.0.0","184841","pnu5fcemr86","1732","stimuli/30_50_R.jpg","j","response","j","true"
"","","","","","html-keyboard-response","103","2.0.0","185344","pnu5fcemr86","null","<p style=""border: 5px solid green;"">Correct!</p>","null","","",""
"","","","","","html-keyboard-response","104","2.0.0","186358","pnu5fcemr86","null","<div style=""font-size: 75px;"">+</div>","null","","",""
"","","","","","image-keyboard-response","105","2.0.0","188082","pnu5fcemr86","1723","stimuli/47_0_R.jpg","j","response","j","true"
"","","","","","html-keyboard-response","106","2.0.0","188586","pnu5fcemr86","null","<p style=""border: 5px solid green;"">Correct!</p>","null","","",""
"","","","","","html-keyboard-response","107","2.0.0","189601","pnu5fcemr86","null","<div style=""font-size: 75px;"">+</div>","null","","",""
"","","","","","image-keyboard-response","108","2.0.0","193033","pnu5fcemr86","3430","stimuli/38_150.jpg","f","response","f","true"
"","","","","","html-keyboard-response","109","2.0.0","193544","pnu5fcemr86","null","<p style=""border: 5px solid green;"">Correct!</p>","null","","",""
"","","","","","html-keyboard-response","110","2.0.0","194558","pnu5fcemr86","null","<div style=""font-size: 75px;"">+</div>","null","","",""
"","","","","","image-keyboard-response","111","2.0.0","197833","pnu5fcemr86","3273","stimuli/11_150.jpg","f","response","f","true"
"","","","","","html-keyboard-response","112","2.0.0","198341","pnu5fcemr86","null","<p style=""border: 5px solid green;"">Correct!</p>","null","","",""
"","","","","","html-keyboard-response","113","2.0.0","199353","pnu5fcemr86","null","<div style=""font-size: 75px;"">+</div>","null","","",""
"","","","","","image-keyboard-response","114","2.0.0","200856","pnu5fcemr86","1500","stimuli/22_150_R.jpg","j","response","j","true"
"","","","","","html-keyboard-response","115","2.0.0","201374","pnu5fcemr86","null","<p style=""border: 5px solid green;"">Correct!</p>","null","","",""
"","","","","","html-keyboard-response","116","2.0.0","202385","pnu5fcemr86","null","<div style=""font-size: 75px;"">+</div>","null","","",""
"","","","","","image-keyboard-response","117","2.0.0","207085","pnu5fcemr86","4697","stimuli/17_0_R.jpg","j","response","j","true"
"","","","","","html-keyboard-response","118","2.0.0","207602","pnu5fcemr86","null","<p style=""border: 5px solid green;"">Correct!</p>","null","","",""
"","","","","","html-keyboard-response","119","2.0.0","208611","pnu5fcemr86","null","<div style=""font-size: 75px;"">+</div>","null","","",""
"","","","","","image-keyboard-response","120","2.0.0","210743","pnu5fcemr86","2129","stimuli/18_50_R.jpg","j","response","j","true"
"","","","","","html-keyboard-response","121","2.0.0","211247","pnu5fcemr86","null","<p style=""border: 5px solid green;"">Correct!</p>","null","","",""
"","","","","","html-keyboard-response","122","2.0.0","212260","pnu5fcemr86","null","<div style=""font-size: 75px;"">+</div>","null","","",""
"","","","","","image-keyboard-response","123","2.0.0","214922","pnu5fcemr86","2659","stimuli/30_150_R.jpg","j","response","j","true"
"","","","","","html-keyboard-response","124","2.0.0","215432","pnu5fcemr86","null","<p style=""border: 5px solid green;"">Correct!</p>","null","","",""
"","","","","","html-keyboard-response","125","2.0.0","216446","pnu5fcemr86","null","<div style=""font-size: 75px;"">+</div>","null","","",""
"","","","","","image-keyboard-response","126","2.0.0","217682","pnu5fcemr86","1233","stimuli/11_0.jpg","f","response","f","true"
"","","","","","html-keyboard-response","127","2.0.0","218191","pnu5fcemr86","null","<p style=""border: 5px solid green;"">Correct!</p>","null","","",""
"","","","","","html-keyboard-response","128","2.0.0","219200","pnu5fcemr86","null","<div style=""font-size: 75px;"">+</div>","null","","",""
"","","","","","image-keyboard-response","129","2.0.0","220601","pnu5fcemr86","1399","stimuli/44_0_R.jpg","j","response","j","true"
"","","","","","html-keyboard-response","130","2.0.0","221117","pnu5fcemr86","null","<p style=""border: 5px solid green;"">Correct!</p>","null","","",""
"","","","","","html-keyboard-response","131","2.0.0","222124","pnu5fcemr86","null","<div style=""font-size: 75px;"">+</div>","null","","",""
"","","","","","image-keyboard-response","132","2.0.0","225158","pnu5fcemr86","3032","stimuli/28_150.jpg","f","response","f","true"
"","","","","","html-keyboard-response","133","2.0.0","225672","pnu5fcemr86","null","<p style=""border: 5px solid green;"">Correct!</p>","null","","",""
"","","","","","html-keyboard-response","134","2.0.0","226685","pnu5fcemr86","null","<div style=""font-size: 75px;"">+</div>","null","","",""
"","","","","","image-keyboard-response","135","2.0.0","231196","pnu5fcemr86","4509","stimuli/7_100.jpg","f","response","f","true"
"","","","","","html-keyboard-response","136","2.0.0","231701","pnu5fcemr86","null","<p style=""border: 5px solid green;"">Correct!</p>","null","","",""
"","","","","","html-keyboard-response","137","2.0.0","232712","pnu5fcemr86","null","<div style=""font-size: 75px;"">+</div>","null","","",""
"","","","","","image-keyboard-response","138","2.0.0","236737","pnu5fcemr86","4022","stimuli/5_50.jpg","f","response","f","true"
"","","","","","html-keyboard-response","139","2.0.0","237240","pnu5fcemr86","null","<p style=""border: 5px solid green;"">Correct!</p>","null","","",""
"","","","","","html-keyboard-response","140","2.0.0","238252","pnu5fcemr86","null","<div style=""font-size: 75px;"">+</div>","null","","",""
"","","","","","image-keyboard-response","141","2.0.0","240242","pnu5fcemr86","1989","stimuli/33_100.jpg","f","response","f","true"
"","","","","","html-keyboard-response","142","2.0.0","240758","pnu5fcemr86","null","<p style=""border: 5px solid green;"">Correct!</p>","null","","",""
"","","","","","html-keyboard-response","143","2.0.0","241769","pnu5fcemr86","null","<div style=""font-size: 75px;"">+</div>","null","","",""
"","","","","","image-keyboard-response","144","2.0.0","246284","pnu5fcemr86","4513","stimuli/41_50.jpg","f","response","f","true"
"","","","","","html-keyboard-response","145","2.0.0","246798","pnu5fcemr86","null","<p style=""border: 5px solid green;"">Correct!</p>","null","","",""
"","","","","","html-keyboard-response","146","2.0.0","247812","pnu5fcemr86","null","<div style=""font-size: 75px;"">+</div>","null","","",""
"","","","","","image-keyboard-response","147","2.0.0","248828","pnu5fcemr86","1014","stimuli/46_0.jpg","f","response","f","true"
"","","","","","html-keyboard-response","148","2.0.0","249341","pnu5fcemr86","null","<p style=""border: 5px solid green;"">Correct!</p>","null","","",""
"","","","","","html-keyboard-response","149","2.0.0","279347","pnu5fcemr86","null","<p> Take a break! Experiment continues in 30 seconds . </p>","null","","",""
"","","","","","html-keyboard-response","150","2.0.0","280355","pnu5fcemr86","null","<div style=""font-size: 75px;"">+</div>","null","","",""
"","","","","","image-keyboard-response","151","2.0.0","282850","pnu5fcemr86","2493","stimuli/25_50_R.jpg","j","response","j","true"
"","","","","","html-keyboard-response","152","2.0.0","283364","pnu5fcemr86","null","<p style=""border: 5px solid green;"">Correct!</p>","null","","",""
"","","","","","html-keyboard-response","153","2.0.0","284378","pnu5fcemr86","null","<div style=""font-size: 75px;"">+</div>","null","","",""
"","","","","","image-keyboard-response","154","2.0.0","286606","pnu5fcemr86","2226","stimuli/17_150.jpg","f","response","f","true"
"","","","","","html-keyboard-response","155","2.0.0","287117","pnu5fcemr86","null","<p style=""border: 5px solid green;"">Correct!</p>","null","","",""
"","","","","","html-keyboard-response","156","2.0.0","288130","pnu5fcemr86","null","<div style=""font-size: 75px;"">+</div>","null","","",""
"","","","","","image-keyboard-response","157","2.0.0","292281","pnu5fcemr86","4146","stimuli/31_150.jpg","f","response","f","true"
"","","","","","html-keyboard-response","158","2.0.0","292784","pnu5fcemr86","null","<p style=""border: 5px solid green;"">Correct!</p>","null","","",""
"","","","","","html-keyboard-response","159","2.0.0","293799","pnu5fcemr86","null","<div style=""font-size: 75px;"">+</div>","null","","",""
"","","","","","image-keyboard-response","160","2.0.0","297286","pnu5fcemr86","3484","stimuli/11_100_R.jpg","f","response","j","false"
"","","","","","html-keyboard-response","161","2.0.0","297800","pnu5fcemr86","null","<p style=""border: 5px solid red;"">Incorrect.</p>","null","","",""
"","","","","","html-keyboard-response","162","2.0.0","298811","pnu5fcemr86","null","<div style=""font-size: 75px;"">+</div>","null","","",""
"","","","","","image-keyboard-response","163","2.0.0","303045","pnu5fcemr86","4231","stimuli/18_150_R.jpg","f","response","j","false"
"","","","","","html-keyboard-response","164","2.0.0","303554","pnu5fcemr86","null","<p style=""border: 5px solid red;"">Incorrect.</p>","null","","",""
"","","","","","html-keyboard-response","165","2.0.0","304563","pnu5fcemr86","null","<div style=""font-size: 75px;"">+</div>","null","","",""
"","","","","","image-keyboard-response","166","2.0.0","306632","pnu5fcemr86","2067","stimuli/4_50.jpg","f","response","f","true"
"","","","","","html-keyboard-response","167","2.0.0","307137","pnu5fcemr86","null","<p style=""border: 5px solid green;"">Correct!</p>","null","","",""
"","","","","","html-keyboard-response","168","2.0.0","308150","pnu5fcemr86","null","<div style=""font-size: 75px;"">+</div>","null","","",""
"","","","","","image-keyboard-response","169","2.0.0","310983","pnu5fcemr86","2829","stimuli/2_50.jpg","f","response","f","true"
"","","","","","html-keyboard-response","170","2.0.0","311499","pnu5fcemr86","null","<p style=""border: 5px solid green;"">Correct!</p>","null","","",""
"","","","","","html-keyboard-response","171","2.0.0","312511","pnu5fcemr86","null","<div style=""font-size: 75px;"">+</div>","null","","",""
"","","","","","image-keyboard-response","172","2.0.0","313769","pnu5fcemr86","1255","stimuli/6_0.jpg","f","response","f","true"
"","","","","","html-keyboard-response","173","2.0.0","314282","pnu5fcemr86","null","<p style=""border: 5px solid green;"">Correct!</p>","null","","",""
"","","","","","html-keyboard-response","174","2.0.0","315296","pnu5fcemr86","null","<div style=""font-size: 75px;"">+</div>","null","","",""
"","","","","","image-keyboard-response","175","2.0.0","317612","pnu5fcemr86","2313","stimuli/45_100.jpg","j","response","f","false"
"","","","","","html-keyboard-response","176","2.0.0","318117","pnu5fcemr86","null","<p style=""border: 5px solid red;"">Incorrect.</p>","null","","",""
"","","","","","html-keyboard-response","177","2.0.0","319129","pnu5fcemr86","null","<div style=""font-size: 75px;"">+</div>","null","","",""
"","","","","","image-keyboard-response","178","2.0.0","320856","pnu5fcemr86","1724","stimuli/46_0_R.jpg","j","response","j","true"
"","","","","","html-keyboard-response","179","2.0.0","321373","pnu5fcemr86","null","<p style=""border: 5px solid green;"">Correct!</p>","null","","",""
"","","","","","html-keyboard-response","180","2.0.0","322386","pnu5fcemr86","null","<div style=""font-size: 75px;"">+</div>","null","","",""
"","","","","","image-keyboard-response","181","2.0.0","325062","pnu5fcemr86","2672","stimuli/45_150_R.jpg","j","response","j","true"
"","","","","","html-keyboard-response","182","2.0.0","325576","pnu5fcemr86","null","<p style=""border: 5px solid green;"">Correct!</p>","null","","",""
"","","","","","html-keyboard-response","183","2.0.0","326588","pnu5fcemr86","null","<div style=""font-size: 75px;"">+</div>","null","","",""
"","","","","","image-keyboard-response","184","2.0.0","329867","pnu5fcemr86","3275","stimuli/29_50.jpg","f","response","f","true"
"","","","","","html-keyboard-response","185","2.0.0","330385","pnu5fcemr86","null","<p style=""border: 5px solid green;"">Correct!</p>","null","","",""
"","","","","","html-keyboard-response","186","2.0.0","331394","pnu5fcemr86","null","<div style=""font-size: 75px;"">+</div>","null","","",""
"","","","","","image-keyboard-response","187","2.0.0","333177","pnu5fcemr86","1780","stimuli/1_0_R.jpg","j","response","j","true"
"","","","","","html-keyboard-response","188","2.0.0","333684","pnu5fcemr86","null","<p style=""border: 5px solid green;"">Correct!</p>","null","","",""
"","","","","","html-keyboard-response","189","2.0.0","334695","pnu5fcemr86","null","<div style=""font-size: 75px;"">+</div>","null","","",""
"","","","","","image-keyboard-response","190","2.0.0","336725","pnu5fcemr86","2028","stimuli/47_50_R.jpg","j","response","j","true"
"","","","","","html-keyboard-response","191","2.0.0","337241","pnu5fcemr86","null","<p style=""border: 5px solid green;"">Correct!</p>","null","","",""
"","","","","","html-keyboard-response","192","2.0.0","338252","pnu5fcemr86","null","<div style=""font-size: 75px;"">+</div>","null","","",""
"","","","","","image-keyboard-response","193","2.0.0","340809","pnu5fcemr86","2555","stimuli/8_100_R.jpg","j","response","j","true"
"","","","","","html-keyboard-response","194","2.0.0","341317","pnu5fcemr86","null","<p style=""border: 5px solid green;"">Correct!</p>","null","","",""
"","","","","","html-keyboard-response","195","2.0.0","342333","pnu5fcemr86","null","<div style=""font-size: 75px;"">+</div>","null","","",""
"","","","","","image-keyboard-response","196","2.0.0","343479","pnu5fcemr86","1144","stimuli/44_50_R.jpg","j","response","j","true"
"","","","","","html-keyboard-response","197","2.0.0","343985","pnu5fcemr86","null","<p style=""border: 5px solid green;"">Correct!</p>","null","","",""
"","","","","","html-keyboard-response","198","2.0.0","344993","pnu5fcemr86","null","<div style=""font-size: 75px;"">+</div>","null","","",""
"","","","","","image-keyboard-response","199","2.0.0","346533","pnu5fcemr86","1538","stimuli/26_0_R.jpg","j","response","j","true"
"","","","","","html-keyboard-response","200","2.0.0","347045","pnu5fcemr86","null","<p style=""border: 5px solid green;"">Correct!</p>","null","","",""
"","","","","","html-keyboard-response","201","2.0.0","348052","pnu5fcemr86","null","<div style=""font-size: 75px;"">+</div>","null","","",""
"","","","","","image-keyboard-response","202","2.0.0","353063","pnu5fcemr86","5008","stimuli/26_100.jpg","f","response","f","true"
"","","","","","html-keyboard-response","203","2.0.0","353566","pnu5fcemr86","null","<p style=""border: 5px solid green;"">Correct!</p>","null","","",""
"","","","","","html-keyboard-response","204","2.0.0","354576","pnu5fcemr86","null","<div style=""font-size: 75px;"">+</div>","null","","",""
"","","","","","image-keyboard-response","205","2.0.0","356204","pnu5fcemr86","1625","stimuli/37_50.jpg","f","response","f","true"
"","","","","","html-keyboard-response","206","2.0.0","356707","pnu5fcemr86","null","<p style=""border: 5px solid green;"">Correct!</p>","null","","",""
"","","","","","html-keyboard-response","207","2.0.0","357717","pnu5fcemr86","null","<div style=""font-size: 75px;"">+</div>","null","","",""
"","","","","","image-keyboard-response","208","2.0.0","359503","pnu5fcemr86","1784","stimuli/25_0.jpg","f","response","f","true"
"","","","","","html-keyboard-response","209","2.0.0","360017","pnu5fcemr86","null","<p style=""border: 5px solid green;"">Correct!</p>","null","","",""
"","","","","","html-keyboard-response","210","2.0.0","361027","pnu5fcemr86","null","<div style=""font-size: 75px;"">+</div>","null","","",""
"","","","","","image-keyboard-response","211","2.0.0","363316","pnu5fcemr86","2287","stimuli/16_100_R.jpg","j","response","j","true"
"","","","","","html-keyboard-response","212","2.0.0","363824","pnu5fcemr86","null","<p style=""border: 5px solid green;"">Correct!</p>","null","","",""
"","","","","","html-keyboard-response","213","2.0.0","364835","pnu5fcemr86","null","<div style=""font-size: 75px;"">+</div>","null","","",""
"","","","","","image-keyboard-response","214","2.0.0","366149","pnu5fcemr86","1311","stimuli/26_0.jpg","f","response","f","true"
"","","","","","html-keyboard-response","215","2.0.0","366655","pnu5fcemr86","null","<p style=""border: 5px solid green;"">Correct!</p>","null","","",""
"","","","","","html-keyboard-response","216","2.0.0","367669","pnu5fcemr86","null","<div style=""font-size: 75px;"">+</div>","null","","",""
"","","","","","image-keyboard-response","217","2.0.0","371482","pnu5fcemr86","3811","stimuli/20_150.jpg","f","response","f","true"
"","","","","","html-keyboard-response","218","2.0.0","371996","pnu5fcemr86","null","<p style=""border: 5px solid green;"">Correct!</p>","null","","",""
"","","","","","html-keyboard-response","219","2.0.0","373000","pnu5fcemr86","null","<div style=""font-size: 75px;"">+</div>","null","","",""
"","","","","","image-keyboard-response","220","2.0.0","378083","pnu5fcemr86","5079","stimuli/14_100.jpg","f","response","f","true"
"","","","","","html-keyboard-response","221","2.0.0","378585","pnu5fcemr86","null","<p style=""border: 5px solid green;"">Correct!</p>","null","","",""
"","","","","","html-keyboard-response","222","2.0.0","379596","pnu5fcemr86","null","<div style=""font-size: 75px;"">+</div>","null","","",""
"","","","","","image-keyboard-response","223","2.0.0","381192","pnu5fcemr86","1594","stimuli/15_50.jpg","f","response","f","true"
"","","","","","html-keyboard-response","224","2.0.0","381700","pnu5fcemr86","null","<p style=""border: 5px solid green;"">Correct!</p>","null","","",""
"","","","","","html-keyboard-response","225","2.0.0","382711","pnu5fcemr86","null","<div style=""font-size: 75px;"">+</div>","null","","",""
"","","","","","image-keyboard-response","226","2.0.0","383927","pnu5fcemr86","1214","stimuli/10_0.jpg","f","response","f","true"
"","","","","","html-keyboard-response","227","2.0.0","384437","pnu5fcemr86","null","<p style=""border: 5px solid green;"">Correct!</p>","null","","",""
"","","","","","html-keyboard-response","228","2.0.0","385446","pnu5fcemr86","null","<div style=""font-size: 75px;"">+</div>","null","","",""
"","","","","","image-keyboard-response","229","2.0.0","387131","pnu5fcemr86","1682","stimuli/38_100.jpg","f","response","f","true"
"","","","","","html-keyboard-response","230","2.0.0","387640","pnu5fcemr86","null","<p style=""border: 5px solid green;"">Correct!</p>","null","","",""
"","","","","","html-keyboard-response","231","2.0.0","388655","pnu5fcemr86","null","<div style=""font-size: 75px;"">+</div>","null","","",""
"","","","","","image-keyboard-response","232","2.0.0","393039","pnu5fcemr86","4380","stimuli/26_150_R.jpg","j","response","j","true"
"","","","","","html-keyboard-response","233","2.0.0","393544","pnu5fcemr86","null","<p style=""border: 5px solid green;"">Correct!</p>","null","","",""
"","","","","","html-keyboard-response","234","2.0.0","394559","pnu5fcemr86","null","<div style=""font-size: 75px;"">+</div>","null","","",""
"","","","","","image-keyboard-response","235","2.0.0","396967","pnu5fcemr86","2404","stimuli/33_0_R.jpg","f","response","j","false"
"","","","","","html-keyboard-response","236","2.0.0","397470","pnu5fcemr86","null","<p style=""border: 5px solid red;"">Incorrect.</p>","null","","",""
"","","","","","html-keyboard-response","237","2.0.0","398480","pnu5fcemr86","null","<div style=""font-size: 75px;"">+</div>","null","","",""
"","","","","","image-keyboard-response","238","2.0.0","400225","pnu5fcemr86","1743","stimuli/21_100.jpg","f","response","f","true"
"","","","","","html-keyboard-response","239","2.0.0","400736","pnu5fcemr86","null","<p style=""border: 5px solid green;"">Correct!</p>","null","","",""
"","","","","","html-keyboard-response","240","2.0.0","401748","pnu5fcemr86","null","<div style=""font-size: 75px;"">+</div>","null","","",""
"","","","","","image-keyboard-response","241","2.0.0","403509","pnu5fcemr86","1759","stimuli/30_100_R.jpg","j","response","j","true"
"","","","","","html-keyboard-response","242","2.0.0","404014","pnu5fcemr86","null","<p style=""border: 5px solid green;"">Correct!</p>","null","","",""
"","","","","","html-keyboard-response","243","2.0.0","405029","pnu5fcemr86","null","<div style=""font-size: 75px;"">+</div>","null","","",""
"","","","","","image-keyboard-response","244","2.0.0","407505","pnu5fcemr86","2473","stimuli/4_100.jpg","f","response","f","true"
"","","","","","html-keyboard-response","245","2.0.0","408011","pnu5fcemr86","null","<p style=""border: 5px solid green;"">Correct!</p>","null","","",""
"","","","","","html-keyboard-response","246","2.0.0","409019","pnu5fcemr86","null","<div style=""font-size: 75px;"">+</div>","null","","",""
"","","","","","image-keyboard-response","247","2.0.0","411518","pnu5fcemr86","2496","stimuli/26_100_R.jpg","j","response","j","true"
"","","","","","html-keyboard-response","248","2.0.0","412034","pnu5fcemr86","null","<p style=""border: 5px solid green;"">Correct!</p>","null","","",""
"","","","","","html-keyboard-response","249","2.0.0","413044","pnu5fcemr86","null","<div style=""font-size: 75px;"">+</div>","null","","",""
"","","","","","image-keyboard-response","250","2.0.0","414220","pnu5fcemr86","1173","stimuli/27_0_R.jpg","j","response","j","true"
"","","","","","html-keyboard-response","251","2.0.0","414724","pnu5fcemr86","null","<p style=""border: 5px solid green;"">Correct!</p>","null","","",""
"","","","","","html-keyboard-response","252","2.0.0","415732","pnu5fcemr86","null","<div style=""font-size: 75px;"">+</div>","null","","",""
"","","","","","image-keyboard-response","253","2.0.0","418759","pnu5fcemr86","3023","stimuli/2_150_R.jpg","j","response","j","true"
"","","","","","html-keyboard-response","254","2.0.0","419263","pnu5fcemr86","null","<p style=""border: 5px solid green;"">Correct!</p>","null","","",""
"","","","","","html-keyboard-response","255","2.0.0","420278","pnu5fcemr86","null","<div style=""font-size: 75px;"">+</div>","null","","",""
"","","","","","image-keyboard-response","256","2.0.0","421691","pnu5fcemr86","1411","stimuli/31_0_R.jpg","j","response","j","true"
"","","","","","html-keyboard-response","257","2.0.0","422210","pnu5fcemr86","null","<p style=""border: 5px solid green;"">Correct!</p>","null","","",""
"","","","","","html-keyboard-response","258","2.0.0","423223","pnu5fcemr86","null","<div style=""font-size: 75px;"">+</div>","null","","",""
"","","","","","image-keyboard-response","259","2.0.0","425329","pnu5fcemr86","2105","stimuli/45_150.jpg","f","response","f","true"
"","","","","","html-keyboard-response","260","2.0.0","425841","pnu5fcemr86","null","<p style=""border: 5px solid green;"">Correct!</p>","null","","",""
"","","","","","html-keyboard-response","261","2.0.0","426848","pnu5fcemr86","null","<div style=""font-size: 75px;"">+</div>","null","","",""
"","","","","","image-keyboard-response","262","2.0.0","429148","pnu5fcemr86","2297","stimuli/38_50_R.jpg","j","response","j","true"
"","","","","","html-keyboard-response","263","2.0.0","429661","pnu5fcemr86","null","<p style=""border: 5px solid green;"">Correct!</p>","null","","",""
"","","","","","html-keyboard-response","264","2.0.0","430676","pnu5fcemr86","null","<div style=""font-size: 75px;"">+</div>","null","","",""
"","","","","","image-keyboard-response","265","2.0.0","433878","pnu5fcemr86","3199","stimuli/35_150_R.jpg","j","response","j","true"
"","","","","","html-keyboard-response","266","2.0.0","434383","pnu5fcemr86","null","<p style=""border: 5px solid green;"">Correct!</p>","null","","",""
"","","","","","html-keyboard-response","267","2.0.0","435394","pnu5fcemr86","null","<div style=""font-size: 75px;"">+</div>","null","","",""
"","","","","","image-keyboard-response","268","2.0.0","437478","pnu5fcemr86","2082","stimuli/15_150_R.jpg","j","response","j","true"
"","","","","","html-keyboard-response","269","2.0.0","437990","pnu5fcemr86","null","<p style=""border: 5px solid green;"">Correct!</p>","null","","",""
"","","","","","html-keyboard-response","270","2.0.0","439002","pnu5fcemr86","null","<div style=""font-size: 75px;"">+</div>","null","","",""
"","","","","","image-keyboard-response","271","2.0.0","442158","pnu5fcemr86","3154","stimuli/29_150_R.jpg","j","response","j","true"
"","","","","","html-keyboard-response","272","2.0.0","442660","pnu5fcemr86","null","<p style=""border: 5px solid green;"">Correct!</p>","null","","",""
"","","","","","html-keyboard-response","273","2.0.0","443672","pnu5fcemr86","null","<div style=""font-size: 75px;"">+</div>","null","","",""
"","","","","","image-keyboard-response","274","2.0.0","445343","pnu5fcemr86","1668","stimuli/16_150.jpg","f","response","f","true"
"","","","","","html-keyboard-response","275","2.0.0","445857","pnu5fcemr86","null","<p style=""border: 5px solid green;"">Correct!</p>","null","","",""
"","","","","","html-keyboard-response","276","2.0.0","446871","pnu5fcemr86","null","<div style=""font-size: 75px;"">+</div>","null","","",""
"","","","","","image-keyboard-response","277","2.0.0","448495","pnu5fcemr86","1621","stimuli/26_50_R.jpg","j","response","j","true"
"","","","","","html-keyboard-response","278","2.0.0","449001","pnu5fcemr86","null","<p style=""border: 5px solid green;"">Correct!</p>","null","","",""
"","","","","","html-keyboard-response","279","2.0.0","450014","pnu5fcemr86","null","<div style=""font-size: 75px;"">+</div>","null","","",""
"","","","","","image-keyboard-response","280","2.0.0","451840","pnu5fcemr86","1824","stimuli/3_100_R.jpg","j","response","j","true"
"","","","","","html-keyboard-response","281","2.0.0","452348","pnu5fcemr86","null","<p style=""border: 5px solid green;"">Correct!</p>","null","","",""
"","","","","","html-keyboard-response","282","2.0.0","453365","pnu5fcemr86","null","<div style=""font-size: 75px;"">+</div>","null","","",""
"","","","","","image-keyboard-response","283","2.0.0","455045","pnu5fcemr86","1676","stimuli/7_0_R.jpg","j","response","j","true"
"","","","","","html-keyboard-response","284","2.0.0","455547","pnu5fcemr86","null","<p style=""border: 5px solid green;"">Correct!</p>","null","","",""
"","","","","","html-keyboard-response","285","2.0.0","456559","pnu5fcemr86","null","<div style=""font-size: 75px;"">+</div>","null","","",""
"","","","","","image-keyboard-response","286","2.0.0","461175","pnu5fcemr86","4614","stimuli/34_150.jpg","f","response","f","true"
"","","","","","html-keyboard-response","287","2.0.0","461688","pnu5fcemr86","null","<p style=""border: 5px solid green;"">Correct!</p>","null","","",""
"","","","","","html-keyboard-response","288","2.0.0","462702","pnu5fcemr86","null","<div style=""font-size: 75px;"">+</div>","null","","",""
"","","","","","image-keyboard-response","289","2.0.0","465012","pnu5fcemr86","2308","stimuli/22_100_R.jpg","j","response","j","true"
"","","","","","html-keyboard-response","290","2.0.0","465521","pnu5fcemr86","null","<p style=""border: 5px solid green;"">Correct!</p>","null","","",""
"","","","","","html-keyboard-response","291","2.0.0","466532","pnu5fcemr86","null","<div style=""font-size: 75px;"">+</div>","null","","",""
"","","","","","image-keyboard-response","292","2.0.0","468235","pnu5fcemr86","1699","stimuli/18_50.jpg","f","response","f","true"
"","","","","","html-keyboard-response","293","2.0.0","468744","pnu5fcemr86","null","<p style=""border: 5px solid green;"">Correct!</p>","null","","",""
"","","","","","html-keyboard-response","294","2.0.0","470666","pnu5fcemr86","1920","<p>Thank you for participating!</p><p>Please press space to answer our survey.</p>"," ","","",""
"","","","","","survey-html-form","295","null","32548552","pnu5fcemr86","32076699","","{""response_1"":""Moderately clear and lively"",""response_2"":""Perfectly clear and lively as real seeing"",""response_3"":""No image at all, you only “know” that you are thinking of the object"",""response_4"":""Perfectly clear and lively as real seeing"",""response_5"":""Clear and lively"",""response_6"":""Moderately clear and lively"",""response_7"":""Moderately clear and lively"",""response_8"":""Perfectly clear and lively as real seeing"",""response_9"":""Perfectly clear and lively as real seeing"",""response_10"":""Perfectly clear and lively as real seeing"",""response_11"":""Perfectly clear and lively as real seeing"",""response_12"":""Moderately clear and lively"",""response_13"":""Clear and lively"",""response_14"":""Perfectly clear and lively as real seeing"",""response_15"":""Dim and vague; flat"",""response_16"":""Moderately clear and lively""}","","",""
"","","","","","survey-html-form","296","null","32758239","pnu5fcemr86","209683","","{""age"":""20"",""gender"":""female"",""education"":""some-college"",""handedness"":""right"",""vision"":""corrected"",""technical_difficulties"":""nope"",""knowledge_check"":""if we can mentally rotate shapes/images in our head""}","","",""
