"success","timeout","failed_images","failed_audio","failed_video","trial_type","trial_index","plugin_version","time_elapsed","random_id","rt","stimulus","response","task","correct_response","correct"
"true","false","[]","[]","[]","preload","0","2.0.0","3237","ppugwffqk5s","","","","","",""
"true","","","","","fullscreen","1","2.0.0","4518303","ppugwffqk5s","1779956","","","","",""
"","","","","","html-keyboard-response","2","2.0.0","4541607","ppugwffqk5s","23301","Welcome to the experiment. Press any key to begin.","ArrowRight","","",""
"","","","","","survey-text","3","2.0.0","4545619","ppugwffqk5s","4004","","{""participant_id"":""eagle""}","","",""
"","","","","","html-keyboard-response","4","2.0.0","4661832","ppugwffqk5s","116212","
        <p>Welcome to the experiment.</p>
        <p>In this task, you will see pairs of images.</p>
        <p>Your job is to determine whether the image on the right is a rotated version of the image on the left.</p>
        <p>Press the <strong>F</strong> key if the images are the same.</p>
        <p>Press the <strong>J</strong> key if the images are different.</p>
        <p>Press any key to begin.</p>
    ","ArrowRight","","",""
"","","","","","html-keyboard-response","5","2.0.0","4662837","ppugwffqk5s","null","<div style=""font-size: 75px;"">+</div>","null","","",""
"","","","","","image-keyboard-response","6","2.0.0","4670156","ppugwffqk5s","7308","stimuli/22_0.jpg","f","response","f","true"
"","","","","","html-keyboard-response","7","2.0.0","4670661","ppugwffqk5s","null","<p style=""border: 5px solid green;"">Correct!</p>","null","","",""
"","","","","","html-keyboard-response","8","2.0.0","4671666","ppugwffqk5s","null","<div style=""font-size: 75px;"">+</div>","null","","",""
"","","","","","image-keyboard-response","9","2.0.0","4678837","ppugwffqk5s","7168","stimuli/35_100.jpg","f","response","f","true"
"","","","","","html-keyboard-response","10","2.0.0","4679339","ppugwffqk5s","null","<p style=""border: 5px solid green;"">Correct!</p>","null","","",""
"","","","","","html-keyboard-response","11","2.0.0","4680343","ppugwffqk5s","null","<div style=""font-size: 75px;"">+</div>","null","","",""
"","","","","","image-keyboard-response","12","2.0.0","4683606","ppugwffqk5s","3259","stimuli/40_100.jpg","f","response","f","true"
"","","","","","html-keyboard-response","13","2.0.0","4684109","ppugwffqk5s","null","<p style=""border: 5px solid green;"">Correct!</p>","null","","",""
"","","","","","html-keyboard-response","14","2.0.0","4685112","ppugwffqk5s","null","<div style=""font-size: 75px;"">+</div>","null","","",""
"","","","","","image-keyboard-response","15","2.0.0","4688429","ppugwffqk5s","3313","stimuli/23_150.jpg","f","response","f","true"
"","","","","","html-keyboard-response","16","2.0.0","4688931","ppugwffqk5s","null","<p style=""border: 5px solid green;"">Correct!</p>","null","","",""
"","","","","","html-keyboard-response","17","2.0.0","4689934","ppugwffqk5s","null","<div style=""font-size: 75px;"">+</div>","null","","",""
"","","","","","image-keyboard-response","18","2.0.0","4691935","ppugwffqk5s","1996","stimuli/42_0.jpg","f","response","f","true"
"","","","","","html-keyboard-response","19","2.0.0","4692437","ppugwffqk5s","null","<p style=""border: 5px solid green;"">Correct!</p>","null","","",""
"","","","","","html-keyboard-response","20","2.0.0","4693440","ppugwffqk5s","null","<div style=""font-size: 75px;"">+</div>","null","","",""
"","","","","","image-keyboard-response","21","2.0.0","4698147","ppugwffqk5s","4703","stimuli/2_150_R.jpg","f","response","j","false"
"","","","","","html-keyboard-response","22","2.0.0","4698649","ppugwffqk5s","null","<p style=""border: 5px solid red;"">Incorrect.</p>","null","","",""
"","","","","","html-keyboard-response","23","2.0.0","4699652","ppugwffqk5s","null","<div style=""font-size: 75px;"">+</div>","null","","",""
"","","","","","image-keyboard-response","24","2.0.0","4716288","ppugwffqk5s","16632","stimuli/13_150.jpg","f","response","f","true"
"","","","","","html-keyboard-response","25","2.0.0","4716791","ppugwffqk5s","null","<p style=""border: 5px solid green;"">Correct!</p>","null","","",""
"","","","","","html-keyboard-response","26","2.0.0","4717795","ppugwffqk5s","null","<div style=""font-size: 75px;"">+</div>","null","","",""
"","","","","","image-keyboard-response","27","2.0.0","4722500","ppugwffqk5s","4702","stimuli/34_150.jpg","f","response","f","true"
"","","","","","html-keyboard-response","28","2.0.0","4723003","ppugwffqk5s","null","<p style=""border: 5px solid green;"">Correct!</p>","null","","",""
"","","","","","html-keyboard-response","29","2.0.0","4724006","ppugwffqk5s","null","<div style=""font-size: 75px;"">+</div>","null","","",""
"","","","","","image-keyboard-response","30","2.0.0","4728744","ppugwffqk5s","4736","stimuli/25_150_R.jpg","j","response","j","true"
"","","","","","html-keyboard-response","31","2.0.0","4729247","ppugwffqk5s","null","<p style=""border: 5px solid green;"">Correct!</p>","null","","",""
"","","","","","html-keyboard-response","32","2.0.0","4730251","ppugwffqk5s","null","<div style=""font-size: 75px;"">+</div>","null","","",""
"","","","","","image-keyboard-response","33","2.0.0","4734549","ppugwffqk5s","4295","stimuli/33_50.jpg","f","response","f","true"
"","","","","","html-keyboard-response","34","2.0.0","4735051","ppugwffqk5s","null","<p style=""border: 5px solid green;"">Correct!</p>","null","","",""
"","","","","","html-keyboard-response","35","2.0.0","4736053","ppugwffqk5s","null","<div style=""font-size: 75px;"">+</div>","null","","",""
"","","","","","image-keyboard-response","36","2.0.0","4742600","ppugwffqk5s","6544","stimuli/34_100_R.jpg","j","response","j","true"
"","","","","","html-keyboard-response","37","2.0.0","4743103","ppugwffqk5s","null","<p style=""border: 5px solid green;"">Correct!</p>","null","","",""
"","","","","","html-keyboard-response","38","2.0.0","4744107","ppugwffqk5s","null","<div style=""font-size: 75px;"">+</div>","null","","",""
"","","","","","image-keyboard-response","39","2.0.0","4748251","ppugwffqk5s","4142","stimuli/32_50_R.jpg","j","response","j","true"
"","","","","","html-keyboard-response","40","2.0.0","4748754","ppugwffqk5s","null","<p style=""border: 5px solid green;"">Correct!</p>","null","","",""
"","","","","","html-keyboard-response","41","2.0.0","4749757","ppugwffqk5s","null","<div style=""font-size: 75px;"">+</div>","null","","",""
"","","","","","image-keyboard-response","42","2.0.0","4754418","ppugwffqk5s","4659","stimuli/41_50.jpg","f","response","f","true"
"","","","","","html-keyboard-response","43","2.0.0","4754920","ppugwffqk5s","null","<p style=""border: 5px solid green;"">Correct!</p>","null","","",""
"","","","","","html-keyboard-response","44","2.0.0","4755923","ppugwffqk5s","null","<div style=""font-size: 75px;"">+</div>","null","","",""
"","","","","","image-keyboard-response","45","2.0.0","4761600","ppugwffqk5s","5674","stimuli/38_150.jpg","j","response","f","false"
"","","","","","html-keyboard-response","46","2.0.0","4762104","ppugwffqk5s","null","<p style=""border: 5px solid red;"">Incorrect.</p>","null","","",""
"","","","","","html-keyboard-response","47","2.0.0","4763108","ppugwffqk5s","null","<div style=""font-size: 75px;"">+</div>","null","","",""
"","","","","","image-keyboard-response","48","2.0.0","4767681","ppugwffqk5s","4569","stimuli/24_150_R.jpg","j","response","j","true"
"","","","","","html-keyboard-response","49","2.0.0","4768183","ppugwffqk5s","null","<p style=""border: 5px solid green;"">Correct!</p>","null","","",""
"","","","","","html-keyboard-response","50","2.0.0","4769187","ppugwffqk5s","null","<div style=""font-size: 75px;"">+</div>","null","","",""
"","","","","","image-keyboard-response","51","2.0.0","4777932","ppugwffqk5s","8741","stimuli/14_100_R.jpg","j","response","j","true"
"","","","","","html-keyboard-response","52","2.0.0","4778434","ppugwffqk5s","null","<p style=""border: 5px solid green;"">Correct!</p>","null","","",""
"","","","","","html-keyboard-response","53","2.0.0","4779438","ppugwffqk5s","null","<div style=""font-size: 75px;"">+</div>","null","","",""
"","","","","","image-keyboard-response","54","2.0.0","4781443","ppugwffqk5s","1994","stimuli/41_0.jpg","f","response","f","true"
"","","","","","html-keyboard-response","55","2.0.0","4781946","ppugwffqk5s","null","<p style=""border: 5px solid green;"">Correct!</p>","null","","",""
"","","","","","html-keyboard-response","56","2.0.0","4782948","ppugwffqk5s","null","<div style=""font-size: 75px;"">+</div>","null","","",""
"","","","","","image-keyboard-response","57","2.0.0","4787435","ppugwffqk5s","4485","stimuli/37_50.jpg","f","response","f","true"
"","","","","","html-keyboard-response","58","2.0.0","4787937","ppugwffqk5s","null","<p style=""border: 5px solid green;"">Correct!</p>","null","","",""
"","","","","","html-keyboard-response","59","2.0.0","4788940","ppugwffqk5s","null","<div style=""font-size: 75px;"">+</div>","null","","",""
"","","","","","image-keyboard-response","60","2.0.0","4791796","ppugwffqk5s","2852","stimuli/18_50_R.jpg","j","response","j","true"
"","","","","","html-keyboard-response","61","2.0.0","4792299","ppugwffqk5s","null","<p style=""border: 5px solid green;"">Correct!</p>","null","","",""
"","","","","","html-keyboard-response","62","2.0.0","4793301","ppugwffqk5s","null","<div style=""font-size: 75px;"">+</div>","null","","",""
"","","","","","image-keyboard-response","63","2.0.0","4795717","ppugwffqk5s","2415","stimuli/26_0.jpg","f","response","f","true"
"","","","","","html-keyboard-response","64","2.0.0","4796220","ppugwffqk5s","null","<p style=""border: 5px solid green;"">Correct!</p>","null","","",""
"","","","","","html-keyboard-response","65","2.0.0","4797223","ppugwffqk5s","null","<div style=""font-size: 75px;"">+</div>","null","","",""
"","","","","","image-keyboard-response","66","2.0.0","4809967","ppugwffqk5s","12742","stimuli/35_100_R.jpg","j","response","j","true"
"","","","","","html-keyboard-response","67","2.0.0","4810470","ppugwffqk5s","null","<p style=""border: 5px solid green;"">Correct!</p>","null","","",""
"","","","","","html-keyboard-response","68","2.0.0","4811473","ppugwffqk5s","null","<div style=""font-size: 75px;"">+</div>","null","","",""
"","","","","","image-keyboard-response","69","2.0.0","4816223","ppugwffqk5s","4746","stimuli/4_100.jpg","f","response","f","true"
"","","","","","html-keyboard-response","70","2.0.0","4816725","ppugwffqk5s","null","<p style=""border: 5px solid green;"">Correct!</p>","null","","",""
"","","","","","html-keyboard-response","71","2.0.0","4817729","ppugwffqk5s","null","<div style=""font-size: 75px;"">+</div>","null","","",""
"","","","","","image-keyboard-response","72","2.0.0","4842241","ppugwffqk5s","24509","stimuli/11_0_R.jpg","j","response","j","true"
"","","","","","html-keyboard-response","73","2.0.0","4842744","ppugwffqk5s","null","<p style=""border: 5px solid green;"">Correct!</p>","null","","",""
"","","","","","html-keyboard-response","74","2.0.0","4843747","ppugwffqk5s","null","<div style=""font-size: 75px;"">+</div>","null","","",""
"","","","","","image-keyboard-response","75","2.0.0","4847994","ppugwffqk5s","4243","stimuli/37_100_R.jpg","j","response","j","true"
"","","","","","html-keyboard-response","76","2.0.0","4848496","ppugwffqk5s","null","<p style=""border: 5px solid green;"">Correct!</p>","null","","",""
"","","","","","html-keyboard-response","77","2.0.0","4849499","ppugwffqk5s","null","<div style=""font-size: 75px;"">+</div>","null","","",""
"","","","","","image-keyboard-response","78","2.0.0","4852101","ppugwffqk5s","2599","stimuli/13_0_R.jpg","j","response","j","true"
"","","","","","html-keyboard-response","79","2.0.0","4852603","ppugwffqk5s","null","<p style=""border: 5px solid green;"">Correct!</p>","null","","",""
"","","","","","html-keyboard-response","80","2.0.0","4853607","ppugwffqk5s","null","<div style=""font-size: 75px;"">+</div>","null","","",""
"","","","","","image-keyboard-response","81","2.0.0","4856713","ppugwffqk5s","3104","stimuli/38_100_R.jpg","j","response","j","true"
"","","","","","html-keyboard-response","82","2.0.0","4857215","ppugwffqk5s","null","<p style=""border: 5px solid green;"">Correct!</p>","null","","",""
"","","","","","html-keyboard-response","83","2.0.0","4858218","ppugwffqk5s","null","<div style=""font-size: 75px;"">+</div>","null","","",""
"","","","","","image-keyboard-response","84","2.0.0","4861433","ppugwffqk5s","3212","stimuli/26_50_R.jpg","j","response","j","true"
"","","","","","html-keyboard-response","85","2.0.0","4861934","ppugwffqk5s","null","<p style=""border: 5px solid green;"">Correct!</p>","null","","",""
"","","","","","html-keyboard-response","86","2.0.0","4862937","ppugwffqk5s","null","<div style=""font-size: 75px;"">+</div>","null","","",""
"","","","","","image-keyboard-response","87","2.0.0","4864383","ppugwffqk5s","1443","stimuli/1_0.jpg","f","response","f","true"
"","","","","","html-keyboard-response","88","2.0.0","4864886","ppugwffqk5s","null","<p style=""border: 5px solid green;"">Correct!</p>","null","","",""
"","","","","","html-keyboard-response","89","2.0.0","4865889","ppugwffqk5s","null","<div style=""font-size: 75px;"">+</div>","null","","",""
"","","","","","image-keyboard-response","90","2.0.0","4870385","ppugwffqk5s","4494","stimuli/27_150.jpg","f","response","f","true"
"","","","","","html-keyboard-response","91","2.0.0","4870888","ppugwffqk5s","null","<p style=""border: 5px solid green;"">Correct!</p>","null","","",""
"","","","","","html-keyboard-response","92","2.0.0","4871893","ppugwffqk5s","null","<div style=""font-size: 75px;"">+</div>","null","","",""
"","","","","","image-keyboard-response","93","2.0.0","4873650","ppugwffqk5s","1755","stimuli/30_100.jpg","f","response","f","true"
"","","","","","html-keyboard-response","94","2.0.0","4874154","ppugwffqk5s","null","<p style=""border: 5px solid green;"">Correct!</p>","null","","",""
"","","","","","html-keyboard-response","95","2.0.0","4875157","ppugwffqk5s","null","<div style=""font-size: 75px;"">+</div>","null","","",""
"","","","","","image-keyboard-response","96","2.0.0","4877349","ppugwffqk5s","2189","stimuli/6_150_R.jpg","j","response","j","true"
"","","","","","html-keyboard-response","97","2.0.0","4877852","ppugwffqk5s","null","<p style=""border: 5px solid green;"">Correct!</p>","null","","",""
"","","","","","html-keyboard-response","98","2.0.0","4878855","ppugwffqk5s","null","<div style=""font-size: 75px;"">+</div>","null","","",""
"","","","","","image-keyboard-response","99","2.0.0","4881172","ppugwffqk5s","2314","stimuli/15_100_R.jpg","j","response","j","true"
"","","","","","html-keyboard-response","100","2.0.0","4881675","ppugwffqk5s","null","<p style=""border: 5px solid green;"">Correct!</p>","null","","",""
"","","","","","html-keyboard-response","101","2.0.0","4882678","ppugwffqk5s","null","<div style=""font-size: 75px;"">+</div>","null","","",""
"","","","","","image-keyboard-response","102","2.0.0","4884238","ppugwffqk5s","1555","stimuli/14_0.jpg","f","response","f","true"
"","","","","","html-keyboard-response","103","2.0.0","4884740","ppugwffqk5s","null","<p style=""border: 5px solid green;"">Correct!</p>","null","","",""
"","","","","","html-keyboard-response","104","2.0.0","4885745","ppugwffqk5s","null","<div style=""font-size: 75px;"">+</div>","null","","",""
"","","","","","image-keyboard-response","105","2.0.0","4888279","ppugwffqk5s","2522","stimuli/41_100.jpg","f","response","f","true"
"","","","","","html-keyboard-response","106","2.0.0","4888781","ppugwffqk5s","null","<p style=""border: 5px solid green;"">Correct!</p>","null","","",""
"","","","","","html-keyboard-response","107","2.0.0","4889785","ppugwffqk5s","null","<div style=""font-size: 75px;"">+</div>","null","","",""
"","","","","","image-keyboard-response","108","2.0.0","4892240","ppugwffqk5s","2452","stimuli/41_150.jpg","f","response","f","true"
"","","","","","html-keyboard-response","109","2.0.0","4892742","ppugwffqk5s","null","<p style=""border: 5px solid green;"">Correct!</p>","null","","",""
"","","","","","html-keyboard-response","110","2.0.0","4893756","ppugwffqk5s","null","<div style=""font-size: 75px;"">+</div>","null","","",""
"","","","","","image-keyboard-response","111","2.0.0","4896128","ppugwffqk5s","2367","stimuli/27_50.jpg","f","response","f","true"
"","","","","","html-keyboard-response","112","2.0.0","4896630","ppugwffqk5s","null","<p style=""border: 5px solid green;"">Correct!</p>","null","","",""
"","","","","","html-keyboard-response","113","2.0.0","4897633","ppugwffqk5s","null","<div style=""font-size: 75px;"">+</div>","null","","",""
"","","","","","image-keyboard-response","114","2.0.0","4903806","ppugwffqk5s","6171","stimuli/40_150.jpg","f","response","f","true"
"","","","","","html-keyboard-response","115","2.0.0","4904308","ppugwffqk5s","null","<p style=""border: 5px solid green;"">Correct!</p>","null","","",""
"","","","","","html-keyboard-response","116","2.0.0","4905310","ppugwffqk5s","null","<div style=""font-size: 75px;"">+</div>","null","","",""
"","","","","","image-keyboard-response","117","2.0.0","4908894","ppugwffqk5s","3580","stimuli/26_0_R.jpg","j","response","j","true"
"","","","","","html-keyboard-response","118","2.0.0","4909397","ppugwffqk5s","null","<p style=""border: 5px solid green;"">Correct!</p>","null","","",""
"","","","","","html-keyboard-response","119","2.0.0","4910400","ppugwffqk5s","null","<div style=""font-size: 75px;"">+</div>","null","","",""
"","","","","","image-keyboard-response","120","2.0.0","4912718","ppugwffqk5s","2315","stimuli/35_150_R.jpg","j","response","j","true"
"","","","","","html-keyboard-response","121","2.0.0","4913220","ppugwffqk5s","null","<p style=""border: 5px solid green;"">Correct!</p>","null","","",""
"","","","","","html-keyboard-response","122","2.0.0","4914224","ppugwffqk5s","null","<div style=""font-size: 75px;"">+</div>","null","","",""
"","","","","","image-keyboard-response","123","2.0.0","4917791","ppugwffqk5s","3565","stimuli/25_100.jpg","f","response","f","true"
"","","","","","html-keyboard-response","124","2.0.0","4918292","ppugwffqk5s","null","<p style=""border: 5px solid green;"">Correct!</p>","null","","",""
"","","","","","html-keyboard-response","125","2.0.0","4919295","ppugwffqk5s","null","<div style=""font-size: 75px;"">+</div>","null","","",""
"","","","","","image-keyboard-response","126","2.0.0","4926585","ppugwffqk5s","7287","stimuli/22_0_R.jpg","j","response","j","true"
"","","","","","html-keyboard-response","127","2.0.0","4927088","ppugwffqk5s","null","<p style=""border: 5px solid green;"">Correct!</p>","null","","",""
"","","","","","html-keyboard-response","128","2.0.0","4928090","ppugwffqk5s","null","<div style=""font-size: 75px;"">+</div>","null","","",""
"","","","","","image-keyboard-response","129","2.0.0","4931707","ppugwffqk5s","3614","stimuli/17_100_R.jpg","j","response","j","true"
"","","","","","html-keyboard-response","130","2.0.0","4932209","ppugwffqk5s","null","<p style=""border: 5px solid green;"">Correct!</p>","null","","",""
"","","","","","html-keyboard-response","131","2.0.0","4933213","ppugwffqk5s","null","<div style=""font-size: 75px;"">+</div>","null","","",""
"","","","","","image-keyboard-response","132","2.0.0","4936590","ppugwffqk5s","3372","stimuli/22_100_R.jpg","j","response","j","true"
"","","","","","html-keyboard-response","133","2.0.0","4937092","ppugwffqk5s","null","<p style=""border: 5px solid green;"">Correct!</p>","null","","",""
"","","","","","html-keyboard-response","134","2.0.0","4938095","ppugwffqk5s","null","<div style=""font-size: 75px;"">+</div>","null","","",""
"","","","","","image-keyboard-response","135","2.0.0","4939589","ppugwffqk5s","1491","stimuli/31_0.jpg","f","response","f","true"
"","","","","","html-keyboard-response","136","2.0.0","4940091","ppugwffqk5s","null","<p style=""border: 5px solid green;"">Correct!</p>","null","","",""
"","","","","","html-keyboard-response","137","2.0.0","4941094","ppugwffqk5s","null","<div style=""font-size: 75px;"">+</div>","null","","",""
"","","","","","image-keyboard-response","138","2.0.0","4943062","ppugwffqk5s","1966","stimuli/24_100.jpg","f","response","f","true"
"","","","","","html-keyboard-response","139","2.0.0","4943564","ppugwffqk5s","null","<p style=""border: 5px solid green;"">Correct!</p>","null","","",""
"","","","","","html-keyboard-response","140","2.0.0","4944567","ppugwffqk5s","null","<div style=""font-size: 75px;"">+</div>","null","","",""
"","","","","","image-keyboard-response","141","2.0.0","4946204","ppugwffqk5s","1633","stimuli/3_50.jpg","f","response","f","true"
"","","","","","html-keyboard-response","142","2.0.0","4946707","ppugwffqk5s","null","<p style=""border: 5px solid green;"">Correct!</p>","null","","",""
"","","","","","html-keyboard-response","143","2.0.0","4947710","ppugwffqk5s","null","<div style=""font-size: 75px;"">+</div>","null","","",""
"","","","","","image-keyboard-response","144","2.0.0","4949520","ppugwffqk5s","1807","stimuli/40_50_R.jpg","j","response","j","true"
"","","","","","html-keyboard-response","145","2.0.0","4950023","ppugwffqk5s","null","<p style=""border: 5px solid green;"">Correct!</p>","null","","",""
"","","","","","html-keyboard-response","146","2.0.0","4951025","ppugwffqk5s","null","<div style=""font-size: 75px;"">+</div>","null","","",""
"","","","","","image-keyboard-response","147","2.0.0","4953582","ppugwffqk5s","2553","stimuli/4_150.jpg","f","response","f","true"
"","","","","","html-keyboard-response","148","2.0.0","4954086","ppugwffqk5s","null","<p style=""border: 5px solid green;"">Correct!</p>","null","","",""
"","","","","","html-keyboard-response","149","2.0.0","4984088","ppugwffqk5s","null","<p> Take a break! Experiment continues in 30 seconds . </p>","null","","",""
"","","","","","html-keyboard-response","150","2.0.0","4985092","ppugwffqk5s","null","<div style=""font-size: 75px;"">+</div>","null","","",""
"","","","","","image-keyboard-response","151","2.0.0","4990664","ppugwffqk5s","5570","stimuli/12_50_R.jpg","j","response","j","true"
"","","","","","html-keyboard-response","152","2.0.0","4991167","ppugwffqk5s","null","<p style=""border: 5px solid green;"">Correct!</p>","null","","",""
"","","","","","html-keyboard-response","153","2.0.0","4992170","ppugwffqk5s","null","<div style=""font-size: 75px;"">+</div>","null","","",""
"","","","","","image-keyboard-response","154","2.0.0","4993859","ppugwffqk5s","1686","stimuli/4_50.jpg","f","response","f","true"
"","","","","","html-keyboard-response","155","2.0.0","4994361","ppugwffqk5s","null","<p style=""border: 5px solid green;"">Correct!</p>","null","","",""
"","","","","","html-keyboard-response","156","2.0.0","4995364","ppugwffqk5s","null","<div style=""font-size: 75px;"">+</div>","null","","",""
"","","","","","image-keyboard-response","157","2.0.0","4996545","ppugwffqk5s","1170","stimuli/18_0.jpg","f","response","f","true"
"","","","","","html-keyboard-response","158","2.0.0","4997048","ppugwffqk5s","null","<p style=""border: 5px solid green;"">Correct!</p>","null","","",""
"","","","","","html-keyboard-response","159","2.0.0","4998050","ppugwffqk5s","null","<div style=""font-size: 75px;"">+</div>","null","","",""
"","","","","","image-keyboard-response","160","2.0.0","5000379","ppugwffqk5s","2328","stimuli/40_100_R.jpg","j","response","j","true"
"","","","","","html-keyboard-response","161","2.0.0","5000882","ppugwffqk5s","null","<p style=""border: 5px solid green;"">Correct!</p>","null","","",""
"","","","","","html-keyboard-response","162","2.0.0","5001885","ppugwffqk5s","null","<div style=""font-size: 75px;"">+</div>","null","","",""
"","","","","","image-keyboard-response","163","2.0.0","5004466","ppugwffqk5s","2578","stimuli/5_100_R.jpg","j","response","j","true"
"","","","","","html-keyboard-response","164","2.0.0","5004968","ppugwffqk5s","null","<p style=""border: 5px solid green;"">Correct!</p>","null","","",""
"","","","","","html-keyboard-response","165","2.0.0","5005971","ppugwffqk5s","null","<div style=""font-size: 75px;"">+</div>","null","","",""
"","","","","","image-keyboard-response","166","2.0.0","5007445","ppugwffqk5s","1472","stimuli/29_50.jpg","f","response","f","true"
"","","","","","html-keyboard-response","167","2.0.0","5007947","ppugwffqk5s","null","<p style=""border: 5px solid green;"">Correct!</p>","null","","",""
"","","","","","html-keyboard-response","168","2.0.0","5008951","ppugwffqk5s","null","<div style=""font-size: 75px;"">+</div>","null","","",""
"","","","","","image-keyboard-response","169","2.0.0","5010933","ppugwffqk5s","1979","stimuli/10_50_R.jpg","j","response","j","true"
"","","","","","html-keyboard-response","170","2.0.0","5011435","ppugwffqk5s","null","<p style=""border: 5px solid green;"">Correct!</p>","null","","",""
"","","","","","html-keyboard-response","171","2.0.0","5012438","ppugwffqk5s","null","<div style=""font-size: 75px;"">+</div>","null","","",""
"","","","","","image-keyboard-response","172","2.0.0","5014105","ppugwffqk5s","1664","stimuli/46_0_R.jpg","j","response","j","true"
"","","","","","html-keyboard-response","173","2.0.0","5014607","ppugwffqk5s","null","<p style=""border: 5px solid green;"">Correct!</p>","null","","",""
"","","","","","html-keyboard-response","174","2.0.0","5015610","ppugwffqk5s","null","<div style=""font-size: 75px;"">+</div>","null","","",""
"","","","","","image-keyboard-response","175","2.0.0","5018524","ppugwffqk5s","2912","stimuli/31_50_R.jpg","j","response","j","true"
"","","","","","html-keyboard-response","176","2.0.0","5019026","ppugwffqk5s","null","<p style=""border: 5px solid green;"">Correct!</p>","null","","",""
"","","","","","html-keyboard-response","177","2.0.0","5020029","ppugwffqk5s","null","<div style=""font-size: 75px;"">+</div>","null","","",""
"","","","","","image-keyboard-response","178","2.0.0","5022296","ppugwffqk5s","2264","stimuli/6_50.jpg","f","response","f","true"
"","","","","","html-keyboard-response","179","2.0.0","5022798","ppugwffqk5s","null","<p style=""border: 5px solid green;"">Correct!</p>","null","","",""
"","","","","","html-keyboard-response","180","2.0.0","5023801","ppugwffqk5s","null","<div style=""font-size: 75px;"">+</div>","null","","",""
"","","","","","image-keyboard-response","181","2.0.0","5026432","ppugwffqk5s","2629","stimuli/27_150_R.jpg","j","response","j","true"
"","","","","","html-keyboard-response","182","2.0.0","5026935","ppugwffqk5s","null","<p style=""border: 5px solid green;"">Correct!</p>","null","","",""
"","","","","","html-keyboard-response","183","2.0.0","5027938","ppugwffqk5s","null","<div style=""font-size: 75px;"">+</div>","null","","",""
"","","","","","image-keyboard-response","184","2.0.0","5030659","ppugwffqk5s","2717","stimuli/46_150_R.jpg","j","response","j","true"
"","","","","","html-keyboard-response","185","2.0.0","5031162","ppugwffqk5s","null","<p style=""border: 5px solid green;"">Correct!</p>","null","","",""
"","","","","","html-keyboard-response","186","2.0.0","5032165","ppugwffqk5s","null","<div style=""font-size: 75px;"">+</div>","null","","",""
"","","","","","image-keyboard-response","187","2.0.0","5035872","ppugwffqk5s","3705","stimuli/6_150.jpg","f","response","f","true"
"","","","","","html-keyboard-response","188","2.0.0","5036374","ppugwffqk5s","null","<p style=""border: 5px solid green;"">Correct!</p>","null","","",""
"","","","","","html-keyboard-response","189","2.0.0","5037377","ppugwffqk5s","null","<div style=""font-size: 75px;"">+</div>","null","","",""
"","","","","","image-keyboard-response","190","2.0.0","5039367","ppugwffqk5s","1987","stimuli/5_0_R.jpg","j","response","j","true"
"","","","","","html-keyboard-response","191","2.0.0","5039870","ppugwffqk5s","null","<p style=""border: 5px solid green;"">Correct!</p>","null","","",""
"","","","","","html-keyboard-response","192","2.0.0","5040873","ppugwffqk5s","null","<div style=""font-size: 75px;"">+</div>","null","","",""
"","","","","","image-keyboard-response","193","2.0.0","5042548","ppugwffqk5s","1673","stimuli/14_50_R.jpg","j","response","j","true"
"","","","","","html-keyboard-response","194","2.0.0","5043050","ppugwffqk5s","null","<p style=""border: 5px solid green;"">Correct!</p>","null","","",""
"","","","","","html-keyboard-response","195","2.0.0","5044053","ppugwffqk5s","null","<div style=""font-size: 75px;"">+</div>","null","","",""
"","","","","","image-keyboard-response","196","2.0.0","5046904","ppugwffqk5s","2850","stimuli/16_150_R.jpg","j","response","j","true"
"","","","","","html-keyboard-response","197","2.0.0","5047407","ppugwffqk5s","null","<p style=""border: 5px solid green;"">Correct!</p>","null","","",""
"","","","","","html-keyboard-response","198","2.0.0","5048410","ppugwffqk5s","null","<div style=""font-size: 75px;"">+</div>","null","","",""
"","","","","","image-keyboard-response","199","2.0.0","5050762","ppugwffqk5s","2351","stimuli/41_100_R.jpg","j","response","j","true"
"","","","","","html-keyboard-response","200","2.0.0","5051264","ppugwffqk5s","null","<p style=""border: 5px solid green;"">Correct!</p>","null","","",""
"","","","","","html-keyboard-response","201","2.0.0","5052268","ppugwffqk5s","null","<div style=""font-size: 75px;"">+</div>","null","","",""
"","","","","","image-keyboard-response","202","2.0.0","5053770","ppugwffqk5s","1499","stimuli/10_0.jpg","f","response","f","true"
"","","","","","html-keyboard-response","203","2.0.0","5054271","ppugwffqk5s","null","<p style=""border: 5px solid green;"">Correct!</p>","null","","",""
"","","","","","html-keyboard-response","204","2.0.0","5055274","ppugwffqk5s","null","<div style=""font-size: 75px;"">+</div>","null","","",""
"","","","","","image-keyboard-response","205","2.0.0","5060345","ppugwffqk5s","5067","stimuli/36_50_R.jpg","j","response","j","true"
"","","","","","html-keyboard-response","206","2.0.0","5060847","ppugwffqk5s","null","<p style=""border: 5px solid green;"">Correct!</p>","null","","",""
"","","","","","html-keyboard-response","207","2.0.0","5061850","ppugwffqk5s","null","<div style=""font-size: 75px;"">+</div>","null","","",""
"","","","","","image-keyboard-response","208","2.0.0","5068867","ppugwffqk5s","7014","stimuli/17_0_R.jpg","j","response","j","true"
"","","","","","html-keyboard-response","209","2.0.0","5069368","ppugwffqk5s","null","<p style=""border: 5px solid green;"">Correct!</p>","null","","",""
"","","","","","html-keyboard-response","210","2.0.0","5070371","ppugwffqk5s","null","<div style=""font-size: 75px;"">+</div>","null","","",""
"","","","","","image-keyboard-response","211","2.0.0","5072438","ppugwffqk5s","2064","stimuli/30_50_R.jpg","j","response","j","true"
"","","","","","html-keyboard-response","212","2.0.0","5072941","ppugwffqk5s","null","<p style=""border: 5px solid green;"">Correct!</p>","null","","",""
"","","","","","html-keyboard-response","213","2.0.0","5073944","ppugwffqk5s","null","<div style=""font-size: 75px;"">+</div>","null","","",""
"","","","","","image-keyboard-response","214","2.0.0","5075763","ppugwffqk5s","1816","stimuli/7_0.jpg","f","response","f","true"
"","","","","","html-keyboard-response","215","2.0.0","5076266","ppugwffqk5s","null","<p style=""border: 5px solid green;"">Correct!</p>","null","","",""
"","","","","","html-keyboard-response","216","2.0.0","5077270","ppugwffqk5s","null","<div style=""font-size: 75px;"">+</div>","null","","",""
"","","","","","image-keyboard-response","217","2.0.0","5078316","ppugwffqk5s","1044","stimuli/15_0_R.jpg","j","response","j","true"
"","","","","","html-keyboard-response","218","2.0.0","5078818","ppugwffqk5s","null","<p style=""border: 5px solid green;"">Correct!</p>","null","","",""
"","","","","","html-keyboard-response","219","2.0.0","5079821","ppugwffqk5s","null","<div style=""font-size: 75px;"">+</div>","null","","",""
"","","","","","image-keyboard-response","220","2.0.0","5081223","ppugwffqk5s","1399","stimuli/22_50.jpg","f","response","f","true"
"","","","","","html-keyboard-response","221","2.0.0","5081724","ppugwffqk5s","null","<p style=""border: 5px solid green;"">Correct!</p>","null","","",""
"","","","","","html-keyboard-response","222","2.0.0","5082728","ppugwffqk5s","null","<div style=""font-size: 75px;"">+</div>","null","","",""
"","","","","","image-keyboard-response","223","2.0.0","5084778","ppugwffqk5s","2048","stimuli/32_150.jpg","f","response","f","true"
"","","","","","html-keyboard-response","224","2.0.0","5085281","ppugwffqk5s","null","<p style=""border: 5px solid green;"">Correct!</p>","null","","",""
"","","","","","html-keyboard-response","225","2.0.0","5086284","ppugwffqk5s","null","<div style=""font-size: 75px;"">+</div>","null","","",""
"","","","","","image-keyboard-response","226","2.0.0","5089355","ppugwffqk5s","3067","stimuli/31_0_R.jpg","j","response","j","true"
"","","","","","html-keyboard-response","227","2.0.0","5089857","ppugwffqk5s","null","<p style=""border: 5px solid green;"">Correct!</p>","null","","",""
"","","","","","html-keyboard-response","228","2.0.0","5090860","ppugwffqk5s","null","<div style=""font-size: 75px;"">+</div>","null","","",""
"","","","","","image-keyboard-response","229","2.0.0","5093384","ppugwffqk5s","2521","stimuli/3_100.jpg","f","response","f","true"
"","","","","","html-keyboard-response","230","2.0.0","5093887","ppugwffqk5s","null","<p style=""border: 5px solid green;"">Correct!</p>","null","","",""
"","","","","","html-keyboard-response","231","2.0.0","5094890","ppugwffqk5s","null","<div style=""font-size: 75px;"">+</div>","null","","",""
"","","","","","image-keyboard-response","232","2.0.0","5097789","ppugwffqk5s","2897","stimuli/14_0_R.jpg","j","response","j","true"
"","","","","","html-keyboard-response","233","2.0.0","5098291","ppugwffqk5s","null","<p style=""border: 5px solid green;"">Correct!</p>","null","","",""
"","","","","","html-keyboard-response","234","2.0.0","5099293","ppugwffqk5s","null","<div style=""font-size: 75px;"">+</div>","null","","",""
"","","","","","image-keyboard-response","235","2.0.0","5101832","ppugwffqk5s","2537","stimuli/43_50_R.jpg","j","response","j","true"
"","","","","","html-keyboard-response","236","2.0.0","5102334","ppugwffqk5s","null","<p style=""border: 5px solid green;"">Correct!</p>","null","","",""
"","","","","","html-keyboard-response","237","2.0.0","5103337","ppugwffqk5s","null","<div style=""font-size: 75px;"">+</div>","null","","",""
"","","","","","image-keyboard-response","238","2.0.0","5105995","ppugwffqk5s","2656","stimuli/33_150_R.jpg","j","response","j","true"
"","","","","","html-keyboard-response","239","2.0.0","5106496","ppugwffqk5s","null","<p style=""border: 5px solid green;"">Correct!</p>","null","","",""
"","","","","","html-keyboard-response","240","2.0.0","5107499","ppugwffqk5s","null","<div style=""font-size: 75px;"">+</div>","null","","",""
"","","","","","image-keyboard-response","241","2.0.0","5111482","ppugwffqk5s","3980","stimuli/45_50_R.jpg","j","response","j","true"
"","","","","","html-keyboard-response","242","2.0.0","5111984","ppugwffqk5s","null","<p style=""border: 5px solid green;"">Correct!</p>","null","","",""
"","","","","","html-keyboard-response","243","2.0.0","5112987","ppugwffqk5s","null","<div style=""font-size: 75px;"">+</div>","null","","",""
"","","","","","image-keyboard-response","244","2.0.0","5115109","ppugwffqk5s","2119","stimuli/11_150_R.jpg","j","response","j","true"
"","","","","","html-keyboard-response","245","2.0.0","5115612","ppugwffqk5s","null","<p style=""border: 5px solid green;"">Correct!</p>","null","","",""
"","","","","","html-keyboard-response","246","2.0.0","5116616","ppugwffqk5s","null","<div style=""font-size: 75px;"">+</div>","null","","",""
"","","","","","image-keyboard-response","247","2.0.0","5119126","ppugwffqk5s","2508","stimuli/10_150_R.jpg","j","response","j","true"
"","","","","","html-keyboard-response","248","2.0.0","5119627","ppugwffqk5s","null","<p style=""border: 5px solid green;"">Correct!</p>","null","","",""
"","","","","","html-keyboard-response","249","2.0.0","5120631","ppugwffqk5s","null","<div style=""font-size: 75px;"">+</div>","null","","",""
"","","","","","image-keyboard-response","250","2.0.0","5123465","ppugwffqk5s","2830","stimuli/18_150.jpg","f","response","f","true"
"","","","","","html-keyboard-response","251","2.0.0","5123967","ppugwffqk5s","null","<p style=""border: 5px solid green;"">Correct!</p>","null","","",""
"","","","","","html-keyboard-response","252","2.0.0","5124970","ppugwffqk5s","null","<div style=""font-size: 75px;"">+</div>","null","","",""
"","","","","","image-keyboard-response","253","2.0.0","5128568","ppugwffqk5s","3595","stimuli/29_100.jpg","f","response","f","true"
"","","","","","html-keyboard-response","254","2.0.0","5129070","ppugwffqk5s","null","<p style=""border: 5px solid green;"">Correct!</p>","null","","",""
"","","","","","html-keyboard-response","255","2.0.0","5130073","ppugwffqk5s","null","<div style=""font-size: 75px;"">+</div>","null","","",""
"","","","","","image-keyboard-response","256","2.0.0","5131430","ppugwffqk5s","1354","stimuli/6_0.jpg","f","response","f","true"
"","","","","","html-keyboard-response","257","2.0.0","5131931","ppugwffqk5s","null","<p style=""border: 5px solid green;"">Correct!</p>","null","","",""
"","","","","","html-keyboard-response","258","2.0.0","5132935","ppugwffqk5s","null","<div style=""font-size: 75px;"">+</div>","null","","",""
"","","","","","image-keyboard-response","259","2.0.0","5134865","ppugwffqk5s","1926","stimuli/1_100.jpg","f","response","f","true"
"","","","","","html-keyboard-response","260","2.0.0","5135368","ppugwffqk5s","null","<p style=""border: 5px solid green;"">Correct!</p>","null","","",""
"","","","","","html-keyboard-response","261","2.0.0","5136370","ppugwffqk5s","null","<div style=""font-size: 75px;"">+</div>","null","","",""
"","","","","","image-keyboard-response","262","2.0.0","5137934","ppugwffqk5s","1560","stimuli/1_50.jpg","f","response","f","true"
"","","","","","html-keyboard-response","263","2.0.0","5138437","ppugwffqk5s","null","<p style=""border: 5px solid green;"">Correct!</p>","null","","",""
"","","","","","html-keyboard-response","264","2.0.0","5139440","ppugwffqk5s","null","<div style=""font-size: 75px;"">+</div>","null","","",""
"","","","","","image-keyboard-response","265","2.0.0","5141036","ppugwffqk5s","1594","stimuli/20_150_R.jpg","j","response","j","true"
"","","","","","html-keyboard-response","266","2.0.0","5141539","ppugwffqk5s","null","<p style=""border: 5px solid green;"">Correct!</p>","null","","",""
"","","","","","html-keyboard-response","267","2.0.0","5142542","ppugwffqk5s","null","<div style=""font-size: 75px;"">+</div>","null","","",""
"","","","","","image-keyboard-response","268","2.0.0","5145574","ppugwffqk5s","3030","stimuli/10_150.jpg","j","response","f","false"
"","","","","","html-keyboard-response","269","2.0.0","5146075","ppugwffqk5s","null","<p style=""border: 5px solid red;"">Incorrect.</p>","null","","",""
"","","","","","html-keyboard-response","270","2.0.0","5147079","ppugwffqk5s","null","<div style=""font-size: 75px;"">+</div>","null","","",""
"","","","","","image-keyboard-response","271","2.0.0","5148814","ppugwffqk5s","1733","stimuli/43_0_R.jpg","j","response","j","true"
"","","","","","html-keyboard-response","272","2.0.0","5149316","ppugwffqk5s","null","<p style=""border: 5px solid green;"">Correct!</p>","null","","",""
"","","","","","html-keyboard-response","273","2.0.0","5150320","ppugwffqk5s","null","<div style=""font-size: 75px;"">+</div>","null","","",""
"","","","","","image-keyboard-response","274","2.0.0","5153588","ppugwffqk5s","3265","stimuli/26_100.jpg","f","response","f","true"
"","","","","","html-keyboard-response","275","2.0.0","5154090","ppugwffqk5s","null","<p style=""border: 5px solid green;"">Correct!</p>","null","","",""
"","","","","","html-keyboard-response","276","2.0.0","5155094","ppugwffqk5s","null","<div style=""font-size: 75px;"">+</div>","null","","",""
"","","","","","image-keyboard-response","277","2.0.0","5156670","ppugwffqk5s","1573","stimuli/2_50.jpg","f","response","f","true"
"","","","","","html-keyboard-response","278","2.0.0","5157172","ppugwffqk5s","null","<p style=""border: 5px solid green;"">Correct!</p>","null","","",""
"","","","","","html-keyboard-response","279","2.0.0","5158174","ppugwffqk5s","null","<div style=""font-size: 75px;"">+</div>","null","","",""
"","","","","","image-keyboard-response","280","2.0.0","5159301","ppugwffqk5s","1124","stimuli/46_0.jpg","f","response","f","true"
"","","","","","html-keyboard-response","281","2.0.0","5159803","ppugwffqk5s","null","<p style=""border: 5px solid green;"">Correct!</p>","null","","",""
"","","","","","html-keyboard-response","282","2.0.0","5160806","ppugwffqk5s","null","<div style=""font-size: 75px;"">+</div>","null","","",""
"","","","","","image-keyboard-response","283","2.0.0","5163378","ppugwffqk5s","2569","stimuli/7_0_R.jpg","j","response","j","true"
"","","","","","html-keyboard-response","284","2.0.0","5163881","ppugwffqk5s","null","<p style=""border: 5px solid green;"">Correct!</p>","null","","",""
"","","","","","html-keyboard-response","285","2.0.0","5164884","ppugwffqk5s","null","<div style=""font-size: 75px;"">+</div>","null","","",""
"","","","","","image-keyboard-response","286","2.0.0","5167407","ppugwffqk5s","2520","stimuli/11_100_R.jpg","j","response","j","true"
"","","","","","html-keyboard-response","287","2.0.0","5167909","ppugwffqk5s","null","<p style=""border: 5px solid green;"">Correct!</p>","null","","",""
"","","","","","html-keyboard-response","288","2.0.0","5168912","ppugwffqk5s","null","<div style=""font-size: 75px;"">+</div>","null","","",""
"","","","","","image-keyboard-response","289","2.0.0","5171742","ppugwffqk5s","2828","stimuli/21_100.jpg","f","response","f","true"
"","","","","","html-keyboard-response","290","2.0.0","5172245","ppugwffqk5s","null","<p style=""border: 5px solid green;"">Correct!</p>","null","","",""
"","","","","","html-keyboard-response","291","2.0.0","5173248","ppugwffqk5s","null","<div style=""font-size: 75px;"">+</div>","null","","",""
"","","","","","image-keyboard-response","292","2.0.0","5177607","ppugwffqk5s","4357","stimuli/25_50.jpg","f","response","f","true"
"","","","","","html-keyboard-response","293","2.0.0","5178109","ppugwffqk5s","null","<p style=""border: 5px solid green;"">Correct!</p>","null","","",""
"","","","","","html-keyboard-response","294","2.0.0","5179882","ppugwffqk5s","1772","<p>Thank you for participating!</p><p>Please press space to answer our survey.</p>"," ","","",""
"","","","","","survey-html-form","295","null","5370430","ppugwffqk5s","190546","","{""response_1"":""Moderately clear and lively"",""response_2"":""Moderately clear and lively"",""response_3"":""No image at all, you only “know” that you are thinking of the object"",""response_4"":""No image at all, you only “know” that you are thinking of the object"",""response_5"":""Dim and vague; flat"",""response_6"":""Dim and vague; flat"",""response_7"":""No image at all, you only “know” that you are thinking of the object"",""response_8"":""No image at all, you only “know” that you are thinking of the object"",""response_9"":""Moderately clear and lively"",""response_10"":""Moderately clear and lively"",""response_11"":""Moderately clear and lively"",""response_12"":""Moderately clear and lively"",""response_13"":""Moderately clear and lively"",""response_14"":""Moderately clear and lively"",""response_15"":""Moderately clear and lively"",""response_16"":""No image at all, you only “know” that you are thinking of the object""}","","",""
"","","","","","survey-html-form","296","null","5409412","ppugwffqk5s","38979","","{""age"":""21"",""gender"":""female"",""education"":""some-college"",""handedness"":""right"",""vision"":""corrected"",""technical_difficulties"":""No"",""knowledge_check"":""How we visualize items in our minds.""}","","",""
