"success","timeout","failed_images","failed_audio","failed_video","trial_type","trial_index","plugin_version","time_elapsed","random_id","rt","stimulus","response","task","correct_response","correct"
"true","false","[]","[]","[]","preload","0","2.0.0","2439","pqhwqgxrbya","","","","","",""
"true","","","","","fullscreen","1","2.0.0","4431","pqhwqgxrbya","989","","","","",""
"","","","","","html-keyboard-response","2","2.0.0","6341","pqhwqgxrbya","1907","Welcome to the experiment. Press any key to begin."," ","","",""
"","","","","","survey-text","3","2.0.0","10531","pqhwqgxrbya","4186","","{""participant_id"":""falcon""}","","",""
"","","","","","html-keyboard-response","4","2.0.0","218082","pqhwqgxrbya","207554","
        <p>Welcome to the experiment.</p>
        <p>In this task, you will see pairs of images.</p>
        <p>Your job is to determine whether the image on the right is a rotated version of the image on the left.</p>
        <p>Press the <strong>F</strong> key if the images are the same.</p>
        <p>Press the <strong>J</strong> key if the images are different.</p>
        <p>Press any key to begin.</p>
    "," ","","",""
"","","","","","html-keyboard-response","5","2.0.0","219086","pqhwqgxrbya","null","<div style=""font-size: 75px;"">+</div>","null","","",""
"","","","","","image-keyboard-response","6","2.0.0","221877","pqhwqgxrbya","2788","stimuli/21_0.jpg","f","response","f","true"
"","","","","","html-keyboard-response","7","2.0.0","222380","pqhwqgxrbya","null","<p style=""border: 5px solid green;"">Correct!</p>","null","","",""
"","","","","","html-keyboard-response","8","2.0.0","223384","pqhwqgxrbya","null","<div style=""font-size: 75px;"">+</div>","null","","",""
"","","","","","image-keyboard-response","9","2.0.0","226344","pqhwqgxrbya","2958","stimuli/11_100_R.jpg","f","response","j","false"
"","","","","","html-keyboard-response","10","2.0.0","226847","pqhwqgxrbya","null","<p style=""border: 5px solid red;"">Incorrect.</p>","null","","",""
"","","","","","html-keyboard-response","11","2.0.0","227851","pqhwqgxrbya","null","<div style=""font-size: 75px;"">+</div>","null","","",""
"","","","","","image-keyboard-response","12","2.0.0","234689","pqhwqgxrbya","6836","stimuli/20_0_R.jpg","j","response","j","true"
"","","","","","html-keyboard-response","13","2.0.0","235193","pqhwqgxrbya","null","<p style=""border: 5px solid green;"">Correct!</p>","null","","",""
"","","","","","html-keyboard-response","14","2.0.0","236197","pqhwqgxrbya","null","<div style=""font-size: 75px;"">+</div>","null","","",""
"","","","","","image-keyboard-response","15","2.0.0","239216","pqhwqgxrbya","3016","stimuli/13_50.jpg","f","response","f","true"
"","","","","","html-keyboard-response","16","2.0.0","239719","pqhwqgxrbya","null","<p style=""border: 5px solid green;"">Correct!</p>","null","","",""
"","","","","","html-keyboard-response","17","2.0.0","240722","pqhwqgxrbya","null","<div style=""font-size: 75px;"">+</div>","null","","",""
"","","","","","image-keyboard-response","18","2.0.0","242762","pqhwqgxrbya","2037","stimuli/17_50.jpg","f","response","f","true"
"","","","","","html-keyboard-response","19","2.0.0","243265","pqhwqgxrbya","null","<p style=""border: 5px solid green;"">Correct!</p>","null","","",""
"","","","","","html-keyboard-response","20","2.0.0","244269","pqhwqgxrbya","null","<div style=""font-size: 75px;"">+</div>","null","","",""
"","","","","","image-keyboard-response","21","2.0.0","246835","pqhwqgxrbya","2564","stimuli/7_0_R.jpg","j","response","j","true"
"","","","","","html-keyboard-response","22","2.0.0","247338","pqhwqgxrbya","null","<p style=""border: 5px solid green;"">Correct!</p>","null","","",""
"","","","","","html-keyboard-response","23","2.0.0","248342","pqhwqgxrbya","null","<div style=""font-size: 75px;"">+</div>","null","","",""
"","","","","","image-keyboard-response","24","2.0.0","251879","pqhwqgxrbya","3533","stimuli/9_100_R.jpg","j","response","j","true"
"","","","","","html-keyboard-response","25","2.0.0","252382","pqhwqgxrbya","null","<p style=""border: 5px solid green;"">Correct!</p>","null","","",""
"","","","","","html-keyboard-response","26","2.0.0","253386","pqhwqgxrbya","null","<div style=""font-size: 75px;"">+</div>","null","","",""
"","","","","","image-keyboard-response","27","2.0.0","254945","pqhwqgxrbya","1556","stimuli/36_100.jpg","j","response","f","false"
"","","","","","html-keyboard-response","28","2.0.0","255447","pqhwqgxrbya","null","<p style=""border: 5px solid red;"">Incorrect.</p>","null","","",""
"","","","","","html-keyboard-response","29","2.0.0","256451","pqhwqgxrbya","null","<div style=""font-size: 75px;"">+</div>","null","","",""
"","","","","","image-keyboard-response","30","2.0.0","258603","pqhwqgxrbya","2150","stimuli/45_100_R.jpg","j","response","j","true"
"","","","","","html-keyboard-response","31","2.0.0","259106","pqhwqgxrbya","null","<p style=""border: 5px solid green;"">Correct!</p>","null","","",""
"","","","","","html-keyboard-response","32","2.0.0","260108","pqhwqgxrbya","null","<div style=""font-size: 75px;"">+</div>","null","","",""
"","","","","","image-keyboard-response","33","2.0.0","261904","pqhwqgxrbya","1793","stimuli/30_0_R.jpg","j","response","j","true"
"","","","","","html-keyboard-response","34","2.0.0","262407","pqhwqgxrbya","null","<p style=""border: 5px solid green;"">Correct!</p>","null","","",""
"","","","","","html-keyboard-response","35","2.0.0","263410","pqhwqgxrbya","null","<div style=""font-size: 75px;"">+</div>","null","","",""
"","","","","","image-keyboard-response","36","2.0.0","264636","pqhwqgxrbya","1224","stimuli/37_150_R.jpg","j","response","j","true"
"","","","","","html-keyboard-response","37","2.0.0","265138","pqhwqgxrbya","null","<p style=""border: 5px solid green;"">Correct!</p>","null","","",""
"","","","","","html-keyboard-response","38","2.0.0","266141","pqhwqgxrbya","null","<div style=""font-size: 75px;"">+</div>","null","","",""
"","","","","","image-keyboard-response","39","2.0.0","267697","pqhwqgxrbya","1545","stimuli/25_0.jpg","f","response","f","true"
"","","","","","html-keyboard-response","40","2.0.0","268199","pqhwqgxrbya","null","<p style=""border: 5px solid green;"">Correct!</p>","null","","",""
"","","","","","html-keyboard-response","41","2.0.0","269203","pqhwqgxrbya","null","<div style=""font-size: 75px;"">+</div>","null","","",""
"","","","","","image-keyboard-response","42","2.0.0","272873","pqhwqgxrbya","3667","stimuli/20_100_R.jpg","j","response","j","true"
"","","","","","html-keyboard-response","43","2.0.0","273376","pqhwqgxrbya","null","<p style=""border: 5px solid green;"">Correct!</p>","null","","",""
"","","","","","html-keyboard-response","44","2.0.0","274380","pqhwqgxrbya","null","<div style=""font-size: 75px;"">+</div>","null","","",""
"","","","","","image-keyboard-response","45","2.0.0","277047","pqhwqgxrbya","2664","stimuli/45_50_R.jpg","j","response","j","true"
"","","","","","html-keyboard-response","46","2.0.0","277549","pqhwqgxrbya","null","<p style=""border: 5px solid green;"">Correct!</p>","null","","",""
"","","","","","html-keyboard-response","47","2.0.0","278553","pqhwqgxrbya","null","<div style=""font-size: 75px;"">+</div>","null","","",""
"","","","","","image-keyboard-response","48","2.0.0","280269","pqhwqgxrbya","1714","stimuli/23_150.jpg","j","response","f","false"
"","","","","","html-keyboard-response","49","2.0.0","280771","pqhwqgxrbya","null","<p style=""border: 5px solid red;"">Incorrect.</p>","null","","",""
"","","","","","html-keyboard-response","50","2.0.0","281773","pqhwqgxrbya","null","<div style=""font-size: 75px;"">+</div>","null","","",""
"","","","","","image-keyboard-response","51","2.0.0","284058","pqhwqgxrbya","2282","stimuli/34_0_R.jpg","j","response","j","true"
"","","","","","html-keyboard-response","52","2.0.0","284560","pqhwqgxrbya","null","<p style=""border: 5px solid green;"">Correct!</p>","null","","",""
"","","","","","html-keyboard-response","53","2.0.0","285563","pqhwqgxrbya","null","<div style=""font-size: 75px;"">+</div>","null","","",""
"","","","","","image-keyboard-response","54","2.0.0","287891","pqhwqgxrbya","2325","stimuli/3_0_R.jpg","j","response","j","true"
"","","","","","html-keyboard-response","55","2.0.0","288394","pqhwqgxrbya","null","<p style=""border: 5px solid green;"">Correct!</p>","null","","",""
"","","","","","html-keyboard-response","56","2.0.0","289397","pqhwqgxrbya","null","<div style=""font-size: 75px;"">+</div>","null","","",""
"","","","","","image-keyboard-response","57","2.0.0","290571","pqhwqgxrbya","1171","stimuli/2_50_R.jpg","j","response","j","true"
"","","","","","html-keyboard-response","58","2.0.0","291074","pqhwqgxrbya","null","<p style=""border: 5px solid green;"">Correct!</p>","null","","",""
"","","","","","html-keyboard-response","59","2.0.0","292077","pqhwqgxrbya","null","<div style=""font-size: 75px;"">+</div>","null","","",""
"","","","","","image-keyboard-response","60","2.0.0","293667","pqhwqgxrbya","1587","stimuli/23_150_R.jpg","j","response","j","true"
"","","","","","html-keyboard-response","61","2.0.0","294170","pqhwqgxrbya","null","<p style=""border: 5px solid green;"">Correct!</p>","null","","",""
"","","","","","html-keyboard-response","62","2.0.0","295174","pqhwqgxrbya","null","<div style=""font-size: 75px;"">+</div>","null","","",""
"","","","","","image-keyboard-response","63","2.0.0","298092","pqhwqgxrbya","2916","stimuli/47_50_R.jpg","j","response","j","true"
"","","","","","html-keyboard-response","64","2.0.0","298595","pqhwqgxrbya","null","<p style=""border: 5px solid green;"">Correct!</p>","null","","",""
"","","","","","html-keyboard-response","65","2.0.0","299598","pqhwqgxrbya","null","<div style=""font-size: 75px;"">+</div>","null","","",""
"","","","","","image-keyboard-response","66","2.0.0","302308","pqhwqgxrbya","2707","stimuli/3_50_R.jpg","j","response","j","true"
"","","","","","html-keyboard-response","67","2.0.0","302811","pqhwqgxrbya","null","<p style=""border: 5px solid green;"">Correct!</p>","null","","",""
"","","","","","html-keyboard-response","68","2.0.0","303814","pqhwqgxrbya","null","<div style=""font-size: 75px;"">+</div>","null","","",""
"","","","","","image-keyboard-response","69","2.0.0","306043","pqhwqgxrbya","2226","stimuli/42_100.jpg","j","response","f","false"
"","","","","","html-keyboard-response","70","2.0.0","306545","pqhwqgxrbya","null","<p style=""border: 5px solid red;"">Incorrect.</p>","null","","",""
"","","","","","html-keyboard-response","71","2.0.0","307549","pqhwqgxrbya","null","<div style=""font-size: 75px;"">+</div>","null","","",""
"","","","","","image-keyboard-response","72","2.0.0","310714","pqhwqgxrbya","3162","stimuli/18_50_R.jpg","j","response","j","true"
"","","","","","html-keyboard-response","73","2.0.0","311216","pqhwqgxrbya","null","<p style=""border: 5px solid green;"">Correct!</p>","null","","",""
"","","","","","html-keyboard-response","74","2.0.0","312219","pqhwqgxrbya","null","<div style=""font-size: 75px;"">+</div>","null","","",""
"","","","","","image-keyboard-response","75","2.0.0","314086","pqhwqgxrbya","1864","stimuli/9_150_R.jpg","j","response","j","true"
"","","","","","html-keyboard-response","76","2.0.0","314589","pqhwqgxrbya","null","<p style=""border: 5px solid green;"">Correct!</p>","null","","",""
"","","","","","html-keyboard-response","77","2.0.0","315592","pqhwqgxrbya","null","<div style=""font-size: 75px;"">+</div>","null","","",""
"","","","","","image-keyboard-response","78","2.0.0","316779","pqhwqgxrbya","1176","stimuli/39_100.jpg","j","response","f","false"
"","","","","","html-keyboard-response","79","2.0.0","317281","pqhwqgxrbya","null","<p style=""border: 5px solid red;"">Incorrect.</p>","null","","",""
"","","","","","html-keyboard-response","80","2.0.0","318284","pqhwqgxrbya","null","<div style=""font-size: 75px;"">+</div>","null","","",""
"","","","","","image-keyboard-response","81","2.0.0","319672","pqhwqgxrbya","1385","stimuli/8_50_R.jpg","j","response","j","true"
"","","","","","html-keyboard-response","82","2.0.0","320175","pqhwqgxrbya","null","<p style=""border: 5px solid green;"">Correct!</p>","null","","",""
"","","","","","html-keyboard-response","83","2.0.0","321179","pqhwqgxrbya","null","<div style=""font-size: 75px;"">+</div>","null","","",""
"","","","","","image-keyboard-response","84","2.0.0","324601","pqhwqgxrbya","3420","stimuli/20_50.jpg","f","response","f","true"
"","","","","","html-keyboard-response","85","2.0.0","325104","pqhwqgxrbya","null","<p style=""border: 5px solid green;"">Correct!</p>","null","","",""
"","","","","","html-keyboard-response","86","2.0.0","326107","pqhwqgxrbya","null","<div style=""font-size: 75px;"">+</div>","null","","",""
"","","","","","image-keyboard-response","87","2.0.0","327692","pqhwqgxrbya","1582","stimuli/34_100_R.jpg","j","response","j","true"
"","","","","","html-keyboard-response","88","2.0.0","328194","pqhwqgxrbya","null","<p style=""border: 5px solid green;"">Correct!</p>","null","","",""
"","","","","","html-keyboard-response","89","2.0.0","329196","pqhwqgxrbya","null","<div style=""font-size: 75px;"">+</div>","null","","",""
"","","","","","image-keyboard-response","90","2.0.0","330983","pqhwqgxrbya","1784","stimuli/37_50.jpg","f","response","f","true"
"","","","","","html-keyboard-response","91","2.0.0","331486","pqhwqgxrbya","null","<p style=""border: 5px solid green;"">Correct!</p>","null","","",""
"","","","","","html-keyboard-response","92","2.0.0","332489","pqhwqgxrbya","null","<div style=""font-size: 75px;"">+</div>","null","","",""
"","","","","","image-keyboard-response","93","2.0.0","335233","pqhwqgxrbya","2741","stimuli/38_150_R.jpg","f","response","j","false"
"","","","","","html-keyboard-response","94","2.0.0","335736","pqhwqgxrbya","null","<p style=""border: 5px solid red;"">Incorrect.</p>","null","","",""
"","","","","","html-keyboard-response","95","2.0.0","336739","pqhwqgxrbya","null","<div style=""font-size: 75px;"">+</div>","null","","",""
"","","","","","image-keyboard-response","96","2.0.0","338695","pqhwqgxrbya","1954","stimuli/31_50_R.jpg","j","response","j","true"
"","","","","","html-keyboard-response","97","2.0.0","339198","pqhwqgxrbya","null","<p style=""border: 5px solid green;"">Correct!</p>","null","","",""
"","","","","","html-keyboard-response","98","2.0.0","340200","pqhwqgxrbya","null","<div style=""font-size: 75px;"">+</div>","null","","",""
"","","","","","image-keyboard-response","99","2.0.0","346391","pqhwqgxrbya","6189","stimuli/33_100.jpg","j","response","f","false"
"","","","","","html-keyboard-response","100","2.0.0","346893","pqhwqgxrbya","null","<p style=""border: 5px solid red;"">Incorrect.</p>","null","","",""
"","","","","","html-keyboard-response","101","2.0.0","347896","pqhwqgxrbya","null","<div style=""font-size: 75px;"">+</div>","null","","",""
"","","","","","image-keyboard-response","102","2.0.0","349255","pqhwqgxrbya","1356","stimuli/28_0.jpg","f","response","f","true"
"","","","","","html-keyboard-response","103","2.0.0","349757","pqhwqgxrbya","null","<p style=""border: 5px solid green;"">Correct!</p>","null","","",""
"","","","","","html-keyboard-response","104","2.0.0","350760","pqhwqgxrbya","null","<div style=""font-size: 75px;"">+</div>","null","","",""
"","","","","","image-keyboard-response","105","2.0.0","354878","pqhwqgxrbya","4116","stimuli/36_0_R.jpg","j","response","j","true"
"","","","","","html-keyboard-response","106","2.0.0","355381","pqhwqgxrbya","null","<p style=""border: 5px solid green;"">Correct!</p>","null","","",""
"","","","","","html-keyboard-response","107","2.0.0","356384","pqhwqgxrbya","null","<div style=""font-size: 75px;"">+</div>","null","","",""
"","","","","","image-keyboard-response","108","2.0.0","359579","pqhwqgxrbya","3192","stimuli/10_150_R.jpg","j","response","j","true"
"","","","","","html-keyboard-response","109","2.0.0","360081","pqhwqgxrbya","null","<p style=""border: 5px solid green;"">Correct!</p>","null","","",""
"","","","","","html-keyboard-response","110","2.0.0","361085","pqhwqgxrbya","null","<div style=""font-size: 75px;"">+</div>","null","","",""
"","","","","","image-keyboard-response","111","2.0.0","364112","pqhwqgxrbya","3024","stimuli/25_100_R.jpg","j","response","j","true"
"","","","","","html-keyboard-response","112","2.0.0","364614","pqhwqgxrbya","null","<p style=""border: 5px solid green;"">Correct!</p>","null","","",""
"","","","","","html-keyboard-response","113","2.0.0","365617","pqhwqgxrbya","null","<div style=""font-size: 75px;"">+</div>","null","","",""
"","","","","","image-keyboard-response","114","2.0.0","367700","pqhwqgxrbya","2080","stimuli/16_50.jpg","f","response","f","true"
"","","","","","html-keyboard-response","115","2.0.0","368203","pqhwqgxrbya","null","<p style=""border: 5px solid green;"">Correct!</p>","null","","",""
"","","","","","html-keyboard-response","116","2.0.0","369206","pqhwqgxrbya","null","<div style=""font-size: 75px;"">+</div>","null","","",""
"","","","","","image-keyboard-response","117","2.0.0","370862","pqhwqgxrbya","1646","stimuli/45_0_R.jpg","j","response","j","true"
"","","","","","html-keyboard-response","118","2.0.0","371364","pqhwqgxrbya","null","<p style=""border: 5px solid green;"">Correct!</p>","null","","",""
"","","","","","html-keyboard-response","119","2.0.0","372367","pqhwqgxrbya","null","<div style=""font-size: 75px;"">+</div>","null","","",""
"","","","","","image-keyboard-response","120","2.0.0","377826","pqhwqgxrbya","5456","stimuli/2_150.jpg","j","response","f","false"
"","","","","","html-keyboard-response","121","2.0.0","378328","pqhwqgxrbya","null","<p style=""border: 5px solid red;"">Incorrect.</p>","null","","",""
"","","","","","html-keyboard-response","122","2.0.0","379332","pqhwqgxrbya","null","<div style=""font-size: 75px;"">+</div>","null","","",""
"","","","","","image-keyboard-response","123","2.0.0","380739","pqhwqgxrbya","1405","stimuli/46_50.jpg","f","response","f","true"
"","","","","","html-keyboard-response","124","2.0.0","381242","pqhwqgxrbya","null","<p style=""border: 5px solid green;"">Correct!</p>","null","","",""
"","","","","","html-keyboard-response","125","2.0.0","382246","pqhwqgxrbya","null","<div style=""font-size: 75px;"">+</div>","null","","",""
"","","","","","image-keyboard-response","126","2.0.0","385512","pqhwqgxrbya","3264","stimuli/43_150.jpg","j","response","f","false"
"","","","","","html-keyboard-response","127","2.0.0","386015","pqhwqgxrbya","null","<p style=""border: 5px solid red;"">Incorrect.</p>","null","","",""
"","","","","","html-keyboard-response","128","2.0.0","387018","pqhwqgxrbya","null","<div style=""font-size: 75px;"">+</div>","null","","",""
"","","","","","image-keyboard-response","129","2.0.0","412631","pqhwqgxrbya","25612","stimuli/29_150.jpg","j","response","f","false"
"","","","","","html-keyboard-response","130","2.0.0","413134","pqhwqgxrbya","null","<p style=""border: 5px solid red;"">Incorrect.</p>","null","","",""
"","","","","","html-keyboard-response","131","2.0.0","414137","pqhwqgxrbya","null","<div style=""font-size: 75px;"">+</div>","null","","",""
"","","","","","image-keyboard-response","132","2.0.0","416890","pqhwqgxrbya","2750","stimuli/17_0_R.jpg","j","response","j","true"
"","","","","","html-keyboard-response","133","2.0.0","417392","pqhwqgxrbya","null","<p style=""border: 5px solid green;"">Correct!</p>","null","","",""
"","","","","","html-keyboard-response","134","2.0.0","418395","pqhwqgxrbya","null","<div style=""font-size: 75px;"">+</div>","null","","",""
"","","","","","image-keyboard-response","135","2.0.0","423933","pqhwqgxrbya","5536","stimuli/16_100.jpg","f","response","f","true"
"","","","","","html-keyboard-response","136","2.0.0","424436","pqhwqgxrbya","null","<p style=""border: 5px solid green;"">Correct!</p>","null","","",""
"","","","","","html-keyboard-response","137","2.0.0","425440","pqhwqgxrbya","null","<div style=""font-size: 75px;"">+</div>","null","","",""
"","","","","","image-keyboard-response","138","2.0.0","427807","pqhwqgxrbya","2365","stimuli/48_50.jpg","f","response","f","true"
"","","","","","html-keyboard-response","139","2.0.0","428309","pqhwqgxrbya","null","<p style=""border: 5px solid green;"">Correct!</p>","null","","",""
"","","","","","html-keyboard-response","140","2.0.0","429313","pqhwqgxrbya","null","<div style=""font-size: 75px;"">+</div>","null","","",""
"","","","","","image-keyboard-response","141","2.0.0","430333","pqhwqgxrbya","1018","stimuli/34_0.jpg","f","response","f","true"
"","","","","","html-keyboard-response","142","2.0.0","430836","pqhwqgxrbya","null","<p style=""border: 5px solid green;"">Correct!</p>","null","","",""
"","","","","","html-keyboard-response","143","2.0.0","431840","pqhwqgxrbya","null","<div style=""font-size: 75px;"">+</div>","null","","",""
"","","","","","image-keyboard-response","144","2.0.0","434120","pqhwqgxrbya","2277","stimuli/5_100_R.jpg","j","response","j","true"
"","","","","","html-keyboard-response","145","2.0.0","434623","pqhwqgxrbya","null","<p style=""border: 5px solid green;"">Correct!</p>","null","","",""
"","","","","","html-keyboard-response","146","2.0.0","435626","pqhwqgxrbya","null","<div style=""font-size: 75px;"">+</div>","null","","",""
"","","","","","image-keyboard-response","147","2.0.0","484880","pqhwqgxrbya","49253","stimuli/37_0.jpg","f","response","f","true"
"","","","","","html-keyboard-response","148","2.0.0","485382","pqhwqgxrbya","null","<p style=""border: 5px solid green;"">Correct!</p>","null","","",""
"","","","","","html-keyboard-response","149","2.0.0","515385","pqhwqgxrbya","null","<p> Take a break! Experiment continues in 30 seconds . </p>","null","","",""
"","","","","","html-keyboard-response","150","2.0.0","516387","pqhwqgxrbya","null","<div style=""font-size: 75px;"">+</div>","null","","",""
"","","","","","image-keyboard-response","151","2.0.0","520345","pqhwqgxrbya","3956","stimuli/35_150.jpg","j","response","f","false"
"","","","","","html-keyboard-response","152","2.0.0","520848","pqhwqgxrbya","null","<p style=""border: 5px solid red;"">Incorrect.</p>","null","","",""
"","","","","","html-keyboard-response","153","2.0.0","521851","pqhwqgxrbya","null","<div style=""font-size: 75px;"">+</div>","null","","",""
"","","","","","image-keyboard-response","154","2.0.0","523303","pqhwqgxrbya","1449","stimuli/30_150_R.jpg","j","response","j","true"
"","","","","","html-keyboard-response","155","2.0.0","523805","pqhwqgxrbya","null","<p style=""border: 5px solid green;"">Correct!</p>","null","","",""
"","","","","","html-keyboard-response","156","2.0.0","524807","pqhwqgxrbya","null","<div style=""font-size: 75px;"">+</div>","null","","",""
"","","","","","image-keyboard-response","157","2.0.0","529076","pqhwqgxrbya","4267","stimuli/41_50_R.jpg","j","response","j","true"
"","","","","","html-keyboard-response","158","2.0.0","529579","pqhwqgxrbya","null","<p style=""border: 5px solid green;"">Correct!</p>","null","","",""
"","","","","","html-keyboard-response","159","2.0.0","530581","pqhwqgxrbya","null","<div style=""font-size: 75px;"">+</div>","null","","",""
"","","","","","image-keyboard-response","160","2.0.0","534615","pqhwqgxrbya","4032","stimuli/12_50.jpg","f","response","f","true"
"","","","","","html-keyboard-response","161","2.0.0","535116","pqhwqgxrbya","null","<p style=""border: 5px solid green;"">Correct!</p>","null","","",""
"","","","","","html-keyboard-response","162","2.0.0","536119","pqhwqgxrbya","null","<div style=""font-size: 75px;"">+</div>","null","","",""
"","","","","","image-keyboard-response","163","2.0.0","551007","pqhwqgxrbya","14885","stimuli/30_100.jpg","f","response","f","true"
"","","","","","html-keyboard-response","164","2.0.0","551509","pqhwqgxrbya","null","<p style=""border: 5px solid green;"">Correct!</p>","null","","",""
"","","","","","html-keyboard-response","165","2.0.0","552513","pqhwqgxrbya","null","<div style=""font-size: 75px;"">+</div>","null","","",""
"","","","","","image-keyboard-response","166","2.0.0","563519","pqhwqgxrbya","11006","stimuli/47_150_R.jpg","j","response","j","true"
"","","","","","html-keyboard-response","167","2.0.0","564021","pqhwqgxrbya","null","<p style=""border: 5px solid green;"">Correct!</p>","null","","",""
"","","","","","html-keyboard-response","168","2.0.0","565024","pqhwqgxrbya","null","<div style=""font-size: 75px;"">+</div>","null","","",""
"","","","","","image-keyboard-response","169","2.0.0","602111","pqhwqgxrbya","37087","stimuli/38_0.jpg","f","response","f","true"
"","","","","","html-keyboard-response","170","2.0.0","602613","pqhwqgxrbya","null","<p style=""border: 5px solid green;"">Correct!</p>","null","","",""
"","","","","","html-keyboard-response","171","2.0.0","603617","pqhwqgxrbya","null","<div style=""font-size: 75px;"">+</div>","null","","",""
"","","","","","image-keyboard-response","172","2.0.0","606162","pqhwqgxrbya","2542","stimuli/32_150_R.jpg","j","response","j","true"
"","","","","","html-keyboard-response","173","2.0.0","606666","pqhwqgxrbya","null","<p style=""border: 5px solid green;"">Correct!</p>","null","","",""
"","","","","","html-keyboard-response","174","2.0.0","607669","pqhwqgxrbya","null","<div style=""font-size: 75px;"">+</div>","null","","",""
"","","","","","image-keyboard-response","175","2.0.0","609373","pqhwqgxrbya","1702","stimuli/29_100.jpg","j","response","f","false"
"","","","","","html-keyboard-response","176","2.0.0","609876","pqhwqgxrbya","null","<p style=""border: 5px solid red;"">Incorrect.</p>","null","","",""
"","","","","","html-keyboard-response","177","2.0.0","610880","pqhwqgxrbya","null","<div style=""font-size: 75px;"">+</div>","null","","",""
"","","","","","image-keyboard-response","178","2.0.0","612280","pqhwqgxrbya","1398","stimuli/8_100.jpg","f","response","f","true"
"","","","","","html-keyboard-response","179","2.0.0","612782","pqhwqgxrbya","null","<p style=""border: 5px solid green;"">Correct!</p>","null","","",""
"","","","","","html-keyboard-response","180","2.0.0","613785","pqhwqgxrbya","null","<div style=""font-size: 75px;"">+</div>","null","","",""
"","","","","","image-keyboard-response","181","2.0.0","614622","pqhwqgxrbya","835","stimuli/44_0.jpg","f","response","f","true"
"","","","","","html-keyboard-response","182","2.0.0","615125","pqhwqgxrbya","null","<p style=""border: 5px solid green;"">Correct!</p>","null","","",""
"","","","","","html-keyboard-response","183","2.0.0","616128","pqhwqgxrbya","null","<div style=""font-size: 75px;"">+</div>","null","","",""
"","","","","","image-keyboard-response","184","2.0.0","669766","pqhwqgxrbya","53636","stimuli/7_100.jpg","f","response","f","true"
"","","","","","html-keyboard-response","185","2.0.0","670269","pqhwqgxrbya","null","<p style=""border: 5px solid green;"">Correct!</p>","null","","",""
"","","","","","html-keyboard-response","186","2.0.0","671273","pqhwqgxrbya","null","<div style=""font-size: 75px;"">+</div>","null","","",""
"","","","","","image-keyboard-response","187","2.0.0","679126","pqhwqgxrbya","7851","stimuli/2_100_R.jpg","j","response","j","true"
"","","","","","html-keyboard-response","188","2.0.0","679628","pqhwqgxrbya","null","<p style=""border: 5px solid green;"">Correct!</p>","null","","",""
"","","","","","html-keyboard-response","189","2.0.0","680631","pqhwqgxrbya","null","<div style=""font-size: 75px;"">+</div>","null","","",""
"","","","","","image-keyboard-response","190","2.0.0","700385","pqhwqgxrbya","19753","stimuli/27_150.jpg","f","response","f","true"
"","","","","","html-keyboard-response","191","2.0.0","700888","pqhwqgxrbya","null","<p style=""border: 5px solid green;"">Correct!</p>","null","","",""
"","","","","","html-keyboard-response","192","2.0.0","701891","pqhwqgxrbya","null","<div style=""font-size: 75px;"">+</div>","null","","",""
"","","","","","image-keyboard-response","193","2.0.0","702998","pqhwqgxrbya","1104","stimuli/41_100.jpg","f","response","f","true"
"","","","","","html-keyboard-response","194","2.0.0","703500","pqhwqgxrbya","null","<p style=""border: 5px solid green;"">Correct!</p>","null","","",""
"","","","","","html-keyboard-response","195","2.0.0","704504","pqhwqgxrbya","null","<div style=""font-size: 75px;"">+</div>","null","","",""
"","","","","","image-keyboard-response","196","2.0.0","705503","pqhwqgxrbya","997","stimuli/23_50.jpg","f","response","f","true"
"","","","","","html-keyboard-response","197","2.0.0","706006","pqhwqgxrbya","null","<p style=""border: 5px solid green;"">Correct!</p>","null","","",""
"","","","","","html-keyboard-response","198","2.0.0","707009","pqhwqgxrbya","null","<div style=""font-size: 75px;"">+</div>","null","","",""
"","","","","","image-keyboard-response","199","2.0.0","708860","pqhwqgxrbya","1848","stimuli/19_50_R.jpg","j","response","j","true"
"","","","","","html-keyboard-response","200","2.0.0","709362","pqhwqgxrbya","null","<p style=""border: 5px solid green;"">Correct!</p>","null","","",""
"","","","","","html-keyboard-response","201","2.0.0","710366","pqhwqgxrbya","null","<div style=""font-size: 75px;"">+</div>","null","","",""
"","","","","","image-keyboard-response","202","2.0.0","711207","pqhwqgxrbya","839","stimuli/18_0.jpg","f","response","f","true"
"","","","","","html-keyboard-response","203","2.0.0","711709","pqhwqgxrbya","null","<p style=""border: 5px solid green;"">Correct!</p>","null","","",""
"","","","","","html-keyboard-response","204","2.0.0","712712","pqhwqgxrbya","null","<div style=""font-size: 75px;"">+</div>","null","","",""
"","","","","","image-keyboard-response","205","2.0.0","713225","pqhwqgxrbya","512","stimuli/19_0.jpg","f","response","f","true"
"","","","","","html-keyboard-response","206","2.0.0","713727","pqhwqgxrbya","null","<p style=""border: 5px solid green;"">Correct!</p>","null","","",""
"","","","","","html-keyboard-response","207","2.0.0","714730","pqhwqgxrbya","null","<div style=""font-size: 75px;"">+</div>","null","","",""
"","","","","","image-keyboard-response","208","2.0.0","716606","pqhwqgxrbya","1873","stimuli/38_50_R.jpg","j","response","j","true"
"","","","","","html-keyboard-response","209","2.0.0","717108","pqhwqgxrbya","null","<p style=""border: 5px solid green;"">Correct!</p>","null","","",""
"","","","","","html-keyboard-response","210","2.0.0","718112","pqhwqgxrbya","null","<div style=""font-size: 75px;"">+</div>","null","","",""
"","","","","","image-keyboard-response","211","2.0.0","719804","pqhwqgxrbya","1689","stimuli/48_150_R.jpg","j","response","j","true"
"","","","","","html-keyboard-response","212","2.0.0","720306","pqhwqgxrbya","null","<p style=""border: 5px solid green;"">Correct!</p>","null","","",""
"","","","","","html-keyboard-response","213","2.0.0","721309","pqhwqgxrbya","null","<div style=""font-size: 75px;"">+</div>","null","","",""
"","","","","","image-keyboard-response","214","2.0.0","722590","pqhwqgxrbya","1278","stimuli/48_0_R.jpg","j","response","j","true"
"","","","","","html-keyboard-response","215","2.0.0","723091","pqhwqgxrbya","null","<p style=""border: 5px solid green;"">Correct!</p>","null","","",""
"","","","","","html-keyboard-response","216","2.0.0","724095","pqhwqgxrbya","null","<div style=""font-size: 75px;"">+</div>","null","","",""
"","","","","","image-keyboard-response","217","2.0.0","725403","pqhwqgxrbya","1305","stimuli/22_100_R.jpg","j","response","j","true"
"","","","","","html-keyboard-response","218","2.0.0","725905","pqhwqgxrbya","null","<p style=""border: 5px solid green;"">Correct!</p>","null","","",""
"","","","","","html-keyboard-response","219","2.0.0","726908","pqhwqgxrbya","null","<div style=""font-size: 75px;"">+</div>","null","","",""
"","","","","","image-keyboard-response","220","2.0.0","728618","pqhwqgxrbya","1707","stimuli/32_150.jpg","f","response","f","true"
"","","","","","html-keyboard-response","221","2.0.0","729120","pqhwqgxrbya","null","<p style=""border: 5px solid green;"">Correct!</p>","null","","",""
"","","","","","html-keyboard-response","222","2.0.0","730122","pqhwqgxrbya","null","<div style=""font-size: 75px;"">+</div>","null","","",""
"","","","","","image-keyboard-response","223","2.0.0","839013","pqhwqgxrbya","108891","stimuli/15_150_R.jpg","f","response","j","false"
"","","","","","html-keyboard-response","224","2.0.0","839516","pqhwqgxrbya","null","<p style=""border: 5px solid red;"">Incorrect.</p>","null","","",""
"","","","","","html-keyboard-response","225","2.0.0","840519","pqhwqgxrbya","null","<div style=""font-size: 75px;"">+</div>","null","","",""
"","","","","","image-keyboard-response","226","2.0.0","846184","pqhwqgxrbya","5662","stimuli/34_150_R.jpg","j","response","j","true"
"","","","","","html-keyboard-response","227","2.0.0","846687","pqhwqgxrbya","null","<p style=""border: 5px solid green;"">Correct!</p>","null","","",""
"","","","","","html-keyboard-response","228","2.0.0","847690","pqhwqgxrbya","null","<div style=""font-size: 75px;"">+</div>","null","","",""
"","","","","","image-keyboard-response","229","2.0.0","848976","pqhwqgxrbya","1283","stimuli/43_100_R.jpg","j","response","j","true"
"","","","","","html-keyboard-response","230","2.0.0","849479","pqhwqgxrbya","null","<p style=""border: 5px solid green;"">Correct!</p>","null","","",""
"","","","","","html-keyboard-response","231","2.0.0","850482","pqhwqgxrbya","null","<div style=""font-size: 75px;"">+</div>","null","","",""
"","","","","","image-keyboard-response","232","2.0.0","851929","pqhwqgxrbya","1445","stimuli/30_150.jpg","f","response","f","true"
"","","","","","html-keyboard-response","233","2.0.0","852432","pqhwqgxrbya","null","<p style=""border: 5px solid green;"">Correct!</p>","null","","",""
"","","","","","html-keyboard-response","234","2.0.0","853436","pqhwqgxrbya","null","<div style=""font-size: 75px;"">+</div>","null","","",""
"","","","","","image-keyboard-response","235","2.0.0","855388","pqhwqgxrbya","1949","stimuli/11_100.jpg","j","response","f","false"
"","","","","","html-keyboard-response","236","2.0.0","855890","pqhwqgxrbya","null","<p style=""border: 5px solid red;"">Incorrect.</p>","null","","",""
"","","","","","html-keyboard-response","237","2.0.0","856894","pqhwqgxrbya","null","<div style=""font-size: 75px;"">+</div>","null","","",""
"","","","","","image-keyboard-response","238","2.0.0","858407","pqhwqgxrbya","1510","stimuli/26_50.jpg","f","response","f","true"
"","","","","","html-keyboard-response","239","2.0.0","858910","pqhwqgxrbya","null","<p style=""border: 5px solid green;"">Correct!</p>","null","","",""
"","","","","","html-keyboard-response","240","2.0.0","859913","pqhwqgxrbya","null","<div style=""font-size: 75px;"">+</div>","null","","",""
"","","","","","image-keyboard-response","241","2.0.0","862142","pqhwqgxrbya","2227","stimuli/4_50_R.jpg","j","response","j","true"
"","","","","","html-keyboard-response","242","2.0.0","862645","pqhwqgxrbya","null","<p style=""border: 5px solid green;"">Correct!</p>","null","","",""
"","","","","","html-keyboard-response","243","2.0.0","863648","pqhwqgxrbya","null","<div style=""font-size: 75px;"">+</div>","null","","",""
"","","","","","image-keyboard-response","244","2.0.0","865209","pqhwqgxrbya","1558","stimuli/4_150.jpg","f","response","f","true"
"","","","","","html-keyboard-response","245","2.0.0","865711","pqhwqgxrbya","null","<p style=""border: 5px solid green;"">Correct!</p>","null","","",""
"","","","","","html-keyboard-response","246","2.0.0","866714","pqhwqgxrbya","null","<div style=""font-size: 75px;"">+</div>","null","","",""
"","","","","","image-keyboard-response","247","2.0.0","867458","pqhwqgxrbya","741","stimuli/41_0_R.jpg","f","response","j","false"
"","","","","","html-keyboard-response","248","2.0.0","867960","pqhwqgxrbya","null","<p style=""border: 5px solid red;"">Incorrect.</p>","null","","",""
"","","","","","html-keyboard-response","249","2.0.0","868964","pqhwqgxrbya","null","<div style=""font-size: 75px;"">+</div>","null","","",""
"","","","","","image-keyboard-response","250","2.0.0","869661","pqhwqgxrbya","694","stimuli/15_0.jpg","f","response","f","true"
"","","","","","html-keyboard-response","251","2.0.0","870163","pqhwqgxrbya","null","<p style=""border: 5px solid green;"">Correct!</p>","null","","",""
"","","","","","html-keyboard-response","252","2.0.0","871166","pqhwqgxrbya","null","<div style=""font-size: 75px;"">+</div>","null","","",""
"","","","","","image-keyboard-response","253","2.0.0","872063","pqhwqgxrbya","894","stimuli/24_50.jpg","f","response","f","true"
"","","","","","html-keyboard-response","254","2.0.0","872565","pqhwqgxrbya","null","<p style=""border: 5px solid green;"">Correct!</p>","null","","",""
"","","","","","html-keyboard-response","255","2.0.0","873569","pqhwqgxrbya","null","<div style=""font-size: 75px;"">+</div>","null","","",""
"","","","","","image-keyboard-response","256","2.0.0","874489","pqhwqgxrbya","918","stimuli/39_0_R.jpg","j","response","j","true"
"","","","","","html-keyboard-response","257","2.0.0","874991","pqhwqgxrbya","null","<p style=""border: 5px solid green;"">Correct!</p>","null","","",""
"","","","","","html-keyboard-response","258","2.0.0","875995","pqhwqgxrbya","null","<div style=""font-size: 75px;"">+</div>","null","","",""
"","","","","","image-keyboard-response","259","2.0.0","876890","pqhwqgxrbya","893","stimuli/27_0.jpg","f","response","f","true"
"","","","","","html-keyboard-response","260","2.0.0","877392","pqhwqgxrbya","null","<p style=""border: 5px solid green;"">Correct!</p>","null","","",""
"","","","","","html-keyboard-response","261","2.0.0","878395","pqhwqgxrbya","null","<div style=""font-size: 75px;"">+</div>","null","","",""
"","","","","","image-keyboard-response","262","2.0.0","879824","pqhwqgxrbya","1427","stimuli/15_0_R.jpg","j","response","j","true"
"","","","","","html-keyboard-response","263","2.0.0","880327","pqhwqgxrbya","null","<p style=""border: 5px solid green;"">Correct!</p>","null","","",""
"","","","","","html-keyboard-response","264","2.0.0","881330","pqhwqgxrbya","null","<div style=""font-size: 75px;"">+</div>","null","","",""
"","","","","","image-keyboard-response","265","2.0.0","882681","pqhwqgxrbya","1349","stimuli/46_150.jpg","j","response","f","false"
"","","","","","html-keyboard-response","266","2.0.0","883184","pqhwqgxrbya","null","<p style=""border: 5px solid red;"">Incorrect.</p>","null","","",""
"","","","","","html-keyboard-response","267","2.0.0","884187","pqhwqgxrbya","null","<div style=""font-size: 75px;"">+</div>","null","","",""
"","","","","","image-keyboard-response","268","2.0.0","885530","pqhwqgxrbya","1340","stimuli/44_100_R.jpg","j","response","j","true"
"","","","","","html-keyboard-response","269","2.0.0","886032","pqhwqgxrbya","null","<p style=""border: 5px solid green;"">Correct!</p>","null","","",""
"","","","","","html-keyboard-response","270","2.0.0","887036","pqhwqgxrbya","null","<div style=""font-size: 75px;"">+</div>","null","","",""
"","","","","","image-keyboard-response","271","2.0.0","888404","pqhwqgxrbya","1365","stimuli/41_100_R.jpg","j","response","j","true"
"","","","","","html-keyboard-response","272","2.0.0","888906","pqhwqgxrbya","null","<p style=""border: 5px solid green;"">Correct!</p>","null","","",""
"","","","","","html-keyboard-response","273","2.0.0","889910","pqhwqgxrbya","null","<div style=""font-size: 75px;"">+</div>","null","","",""
"","","","","","image-keyboard-response","274","2.0.0","891059","pqhwqgxrbya","1147","stimuli/19_150.jpg","j","response","f","false"
"","","","","","html-keyboard-response","275","2.0.0","891561","pqhwqgxrbya","null","<p style=""border: 5px solid red;"">Incorrect.</p>","null","","",""
"","","","","","html-keyboard-response","276","2.0.0","892565","pqhwqgxrbya","null","<div style=""font-size: 75px;"">+</div>","null","","",""
"","","","","","image-keyboard-response","277","2.0.0","893617","pqhwqgxrbya","1041","stimuli/36_50.jpg","j","response","f","false"
"","","","","","html-keyboard-response","278","2.0.0","894119","pqhwqgxrbya","null","<p style=""border: 5px solid red;"">Incorrect.</p>","null","","",""
"","","","","","html-keyboard-response","279","2.0.0","895122","pqhwqgxrbya","null","<div style=""font-size: 75px;"">+</div>","null","","",""
"","","","","","image-keyboard-response","280","2.0.0","896523","pqhwqgxrbya","1398","stimuli/37_50_R.jpg","j","response","j","true"
"","","","","","html-keyboard-response","281","2.0.0","897025","pqhwqgxrbya","null","<p style=""border: 5px solid green;"">Correct!</p>","null","","",""
"","","","","","html-keyboard-response","282","2.0.0","898028","pqhwqgxrbya","null","<div style=""font-size: 75px;"">+</div>","null","","",""
"","","","","","image-keyboard-response","283","2.0.0","899196","pqhwqgxrbya","1165","stimuli/15_150.jpg","f","response","f","true"
"","","","","","html-keyboard-response","284","2.0.0","899698","pqhwqgxrbya","null","<p style=""border: 5px solid green;"">Correct!</p>","null","","",""
"","","","","","html-keyboard-response","285","2.0.0","900700","pqhwqgxrbya","null","<div style=""font-size: 75px;"">+</div>","null","","",""
"","","","","","image-keyboard-response","286","2.0.0","902077","pqhwqgxrbya","1374","stimuli/48_100.jpg","f","response","f","true"
"","","","","","html-keyboard-response","287","2.0.0","902580","pqhwqgxrbya","null","<p style=""border: 5px solid green;"">Correct!</p>","null","","",""
"","","","","","html-keyboard-response","288","2.0.0","903583","pqhwqgxrbya","null","<div style=""font-size: 75px;"">+</div>","null","","",""
"","","","","","image-keyboard-response","289","2.0.0","904588","pqhwqgxrbya","1003","stimuli/19_150_R.jpg","j","response","j","true"
"","","","","","html-keyboard-response","290","2.0.0","905091","pqhwqgxrbya","null","<p style=""border: 5px solid green;"">Correct!</p>","null","","",""
"","","","","","html-keyboard-response","291","2.0.0","906094","pqhwqgxrbya","null","<div style=""font-size: 75px;"">+</div>","null","","",""
"","","","","","image-keyboard-response","292","2.0.0","906923","pqhwqgxrbya","826","stimuli/20_0.jpg","f","response","f","true"
"","","","","","html-keyboard-response","293","2.0.0","907425","pqhwqgxrbya","null","<p style=""border: 5px solid green;"">Correct!</p>","null","","",""
"","","","","","html-keyboard-response","294","2.0.0","909443","pqhwqgxrbya","2016","<p>Thank you for participating!</p><p>Please press space to answer our survey.</p>"," ","","",""
"","","","","","survey-html-form","295","null","4135241","pqhwqgxrbya","366229","","{""response_1"":""Perfectly clear and lively as real seeing"",""response_2"":""Clear and lively"",""response_3"":""Moderately clear and lively"",""response_4"":""Clear and lively"",""response_5"":""Moderately clear and lively"",""response_6"":""Clear and lively"",""response_7"":""Clear and lively"",""response_8"":""Clear and lively"",""response_9"":""Clear and lively"",""response_10"":""Dim and vague; flat"",""response_11"":""Clear and lively"",""response_12"":""Perfectly clear and lively as real seeing"",""response_13"":""Clear and lively"",""response_14"":""Clear and lively"",""response_15"":""Moderately clear and lively"",""response_16"":""Perfectly clear and lively as real seeing""}","","",""
"","","","","","survey-html-form","296","null","4164605","pqhwqgxrbya","29348","","{""age"":""19"",""gender"":""female"",""education"":""high-school"",""handedness"":""right"",""vision"":""normal"",""technical_difficulties"":""no"",""knowledge_check"":""how we are able to visualize objects""}","","",""
