"success","timeout","failed_images","failed_audio","failed_video","trial_type","trial_index","plugin_version","time_elapsed","random_id","rt","stimulus","response","task","correct_response","correct"
"true","false","[]","[]","[]","preload","0","2.0.0","2665","ptsspplls8p","","","","","",""
"true","","","","","fullscreen","1","2.0.0","5357","ptsspplls8p","1689","","","","",""
"","","","","","html-keyboard-response","2","2.0.0","6637","ptsspplls8p","1277","Welcome to the experiment. Press any key to begin."," ","","",""
"","","","","","survey-text","3","2.0.0","7707","ptsspplls8p","1067","","{""participant_id"":""squirrel""}","","",""
"","","","","","html-keyboard-response","4","2.0.0","16716","ptsspplls8p","9007","
        <p>Welcome to the experiment.</p>
        <p>In this task, you will see pairs of images.</p>
        <p>Your job is to determine whether the image on the right is a rotated version of the image on the left.</p>
        <p>Press the <strong>F</strong> key if the images are the same.</p>
        <p>Press the <strong>J</strong> key if the images are different.</p>
        <p>Press any key to begin.</p>
    ","Enter","","",""
"","","","","","html-keyboard-response","5","2.0.0","17719","ptsspplls8p","null","<div style=""font-size: 75px;"">+</div>","null","","",""
"","","","","","image-keyboard-response","6","2.0.0","23244","ptsspplls8p","5523","stimuli/27_150.jpg","f","response","f","true"
"","","","","","html-keyboard-response","7","2.0.0","23747","ptsspplls8p","null","<p style=""border: 5px solid green;"">Correct!</p>","null","","",""
"","","","","","html-keyboard-response","8","2.0.0","24750","ptsspplls8p","null","<div style=""font-size: 75px;"">+</div>","null","","",""
"","","","","","image-keyboard-response","9","2.0.0","27629","ptsspplls8p","2877","stimuli/42_100_R.jpg","j","response","j","true"
"","","","","","html-keyboard-response","10","2.0.0","28131","ptsspplls8p","null","<p style=""border: 5px solid green;"">Correct!</p>","null","","",""
"","","","","","html-keyboard-response","11","2.0.0","29134","ptsspplls8p","null","<div style=""font-size: 75px;"">+</div>","null","","",""
"","","","","","image-keyboard-response","12","2.0.0","31681","ptsspplls8p","2546","stimuli/3_50.jpg","f","response","f","true"
"","","","","","html-keyboard-response","13","2.0.0","32183","ptsspplls8p","null","<p style=""border: 5px solid green;"">Correct!</p>","null","","",""
"","","","","","html-keyboard-response","14","2.0.0","33187","ptsspplls8p","null","<div style=""font-size: 75px;"">+</div>","null","","",""
"","","","","","image-keyboard-response","15","2.0.0","34921","ptsspplls8p","1731","stimuli/41_0_R.jpg","j","response","j","true"
"","","","","","html-keyboard-response","16","2.0.0","35423","ptsspplls8p","null","<p style=""border: 5px solid green;"">Correct!</p>","null","","",""
"","","","","","html-keyboard-response","17","2.0.0","36426","ptsspplls8p","null","<div style=""font-size: 75px;"">+</div>","null","","",""
"","","","","","image-keyboard-response","18","2.0.0","37963","ptsspplls8p","1535","stimuli/38_0.jpg","f","response","f","true"
"","","","","","html-keyboard-response","19","2.0.0","38465","ptsspplls8p","null","<p style=""border: 5px solid green;"">Correct!</p>","null","","",""
"","","","","","html-keyboard-response","20","2.0.0","39469","ptsspplls8p","null","<div style=""font-size: 75px;"">+</div>","null","","",""
"","","","","","image-keyboard-response","21","2.0.0","42914","ptsspplls8p","3442","stimuli/37_100_R.jpg","j","response","j","true"
"","","","","","html-keyboard-response","22","2.0.0","43417","ptsspplls8p","null","<p style=""border: 5px solid green;"">Correct!</p>","null","","",""
"","","","","","html-keyboard-response","23","2.0.0","44420","ptsspplls8p","null","<div style=""font-size: 75px;"">+</div>","null","","",""
"","","","","","image-keyboard-response","24","2.0.0","47721","ptsspplls8p","3298","stimuli/15_100.jpg","f","response","f","true"
"","","","","","html-keyboard-response","25","2.0.0","48223","ptsspplls8p","null","<p style=""border: 5px solid green;"">Correct!</p>","null","","",""
"","","","","","html-keyboard-response","26","2.0.0","49226","ptsspplls8p","null","<div style=""font-size: 75px;"">+</div>","null","","",""
"","","","","","image-keyboard-response","27","2.0.0","51045","ptsspplls8p","1815","stimuli/44_100_R.jpg","j","response","j","true"
"","","","","","html-keyboard-response","28","2.0.0","51547","ptsspplls8p","null","<p style=""border: 5px solid green;"">Correct!</p>","null","","",""
"","","","","","html-keyboard-response","29","2.0.0","52550","ptsspplls8p","null","<div style=""font-size: 75px;"">+</div>","null","","",""
"","","","","","image-keyboard-response","30","2.0.0","54863","ptsspplls8p","2310","stimuli/33_150_R.jpg","j","response","j","true"
"","","","","","html-keyboard-response","31","2.0.0","55365","ptsspplls8p","null","<p style=""border: 5px solid green;"">Correct!</p>","null","","",""
"","","","","","html-keyboard-response","32","2.0.0","56369","ptsspplls8p","null","<div style=""font-size: 75px;"">+</div>","null","","",""
"","","","","","image-keyboard-response","33","2.0.0","58139","ptsspplls8p","1767","stimuli/42_150.jpg","f","response","f","true"
"","","","","","html-keyboard-response","34","2.0.0","58641","ptsspplls8p","null","<p style=""border: 5px solid green;"">Correct!</p>","null","","",""
"","","","","","html-keyboard-response","35","2.0.0","59645","ptsspplls8p","null","<div style=""font-size: 75px;"">+</div>","null","","",""
"","","","","","image-keyboard-response","36","2.0.0","61312","ptsspplls8p","1663","stimuli/20_100_R.jpg","j","response","j","true"
"","","","","","html-keyboard-response","37","2.0.0","61814","ptsspplls8p","null","<p style=""border: 5px solid green;"">Correct!</p>","null","","",""
"","","","","","html-keyboard-response","38","2.0.0","62817","ptsspplls8p","null","<div style=""font-size: 75px;"">+</div>","null","","",""
"","","","","","image-keyboard-response","39","2.0.0","65789","ptsspplls8p","2969","stimuli/27_100_R.jpg","j","response","j","true"
"","","","","","html-keyboard-response","40","2.0.0","66291","ptsspplls8p","null","<p style=""border: 5px solid green;"">Correct!</p>","null","","",""
"","","","","","html-keyboard-response","41","2.0.0","67294","ptsspplls8p","null","<div style=""font-size: 75px;"">+</div>","null","","",""
"","","","","","image-keyboard-response","42","2.0.0","70891","ptsspplls8p","3594","stimuli/39_150_R.jpg","j","response","j","true"
"","","","","","html-keyboard-response","43","2.0.0","71394","ptsspplls8p","null","<p style=""border: 5px solid green;"">Correct!</p>","null","","",""
"","","","","","html-keyboard-response","44","2.0.0","72398","ptsspplls8p","null","<div style=""font-size: 75px;"">+</div>","null","","",""
"","","","","","image-keyboard-response","45","2.0.0","74398","ptsspplls8p","1997","stimuli/5_100.jpg","f","response","f","true"
"","","","","","html-keyboard-response","46","2.0.0","74900","ptsspplls8p","null","<p style=""border: 5px solid green;"">Correct!</p>","null","","",""
"","","","","","html-keyboard-response","47","2.0.0","75903","ptsspplls8p","null","<div style=""font-size: 75px;"">+</div>","null","","",""
"","","","","","image-keyboard-response","48","2.0.0","78465","ptsspplls8p","2559","stimuli/25_100.jpg","j","response","f","false"
"","","","","","html-keyboard-response","49","2.0.0","78967","ptsspplls8p","null","<p style=""border: 5px solid red;"">Incorrect.</p>","null","","",""
"","","","","","html-keyboard-response","50","2.0.0","79970","ptsspplls8p","null","<div style=""font-size: 75px;"">+</div>","null","","",""
"","","","","","image-keyboard-response","51","2.0.0","84427","ptsspplls8p","4454","stimuli/11_150.jpg","f","response","f","true"
"","","","","","html-keyboard-response","52","2.0.0","84930","ptsspplls8p","null","<p style=""border: 5px solid green;"">Correct!</p>","null","","",""
"","","","","","html-keyboard-response","53","2.0.0","85934","ptsspplls8p","null","<div style=""font-size: 75px;"">+</div>","null","","",""
"","","","","","image-keyboard-response","54","2.0.0","87850","ptsspplls8p","1914","stimuli/15_50.jpg","j","response","f","false"
"","","","","","html-keyboard-response","55","2.0.0","88352","ptsspplls8p","null","<p style=""border: 5px solid red;"">Incorrect.</p>","null","","",""
"","","","","","html-keyboard-response","56","2.0.0","89357","ptsspplls8p","null","<div style=""font-size: 75px;"">+</div>","null","","",""
"","","","","","image-keyboard-response","57","2.0.0","92816","ptsspplls8p","3457","stimuli/21_150.jpg","f","response","f","true"
"","","","","","html-keyboard-response","58","2.0.0","93319","ptsspplls8p","null","<p style=""border: 5px solid green;"">Correct!</p>","null","","",""
"","","","","","html-keyboard-response","59","2.0.0","94323","ptsspplls8p","null","<div style=""font-size: 75px;"">+</div>","null","","",""
"","","","","","image-keyboard-response","60","2.0.0","97410","ptsspplls8p","3084","stimuli/40_50_R.jpg","j","response","j","true"
"","","","","","html-keyboard-response","61","2.0.0","97912","ptsspplls8p","null","<p style=""border: 5px solid green;"">Correct!</p>","null","","",""
"","","","","","html-keyboard-response","62","2.0.0","98916","ptsspplls8p","null","<div style=""font-size: 75px;"">+</div>","null","","",""
"","","","","","image-keyboard-response","63","2.0.0","100190","ptsspplls8p","1271","stimuli/29_0_R.jpg","j","response","j","true"
"","","","","","html-keyboard-response","64","2.0.0","100693","ptsspplls8p","null","<p style=""border: 5px solid green;"">Correct!</p>","null","","",""
"","","","","","html-keyboard-response","65","2.0.0","101696","ptsspplls8p","null","<div style=""font-size: 75px;"">+</div>","null","","",""
"","","","","","image-keyboard-response","66","2.0.0","103784","ptsspplls8p","2085","stimuli/29_100_R.jpg","f","response","j","false"
"","","","","","html-keyboard-response","67","2.0.0","104288","ptsspplls8p","null","<p style=""border: 5px solid red;"">Incorrect.</p>","null","","",""
"","","","","","html-keyboard-response","68","2.0.0","105292","ptsspplls8p","null","<div style=""font-size: 75px;"">+</div>","null","","",""
"","","","","","image-keyboard-response","69","2.0.0","109256","ptsspplls8p","3962","stimuli/6_50_R.jpg","j","response","j","true"
"","","","","","html-keyboard-response","70","2.0.0","109758","ptsspplls8p","null","<p style=""border: 5px solid green;"">Correct!</p>","null","","",""
"","","","","","html-keyboard-response","71","2.0.0","110762","ptsspplls8p","null","<div style=""font-size: 75px;"">+</div>","null","","",""
"","","","","","image-keyboard-response","72","2.0.0","111733","ptsspplls8p","969","stimuli/3_0.jpg","f","response","f","true"
"","","","","","html-keyboard-response","73","2.0.0","112235","ptsspplls8p","null","<p style=""border: 5px solid green;"">Correct!</p>","null","","",""
"","","","","","html-keyboard-response","74","2.0.0","113238","ptsspplls8p","null","<div style=""font-size: 75px;"">+</div>","null","","",""
"","","","","","image-keyboard-response","75","2.0.0","116907","ptsspplls8p","3667","stimuli/18_50.jpg","f","response","f","true"
"","","","","","html-keyboard-response","76","2.0.0","117410","ptsspplls8p","null","<p style=""border: 5px solid green;"">Correct!</p>","null","","",""
"","","","","","html-keyboard-response","77","2.0.0","118414","ptsspplls8p","null","<div style=""font-size: 75px;"">+</div>","null","","",""
"","","","","","image-keyboard-response","78","2.0.0","123066","ptsspplls8p","4651","stimuli/42_100.jpg","f","response","f","true"
"","","","","","html-keyboard-response","79","2.0.0","123569","ptsspplls8p","null","<p style=""border: 5px solid green;"">Correct!</p>","null","","",""
"","","","","","html-keyboard-response","80","2.0.0","124573","ptsspplls8p","null","<div style=""font-size: 75px;"">+</div>","null","","",""
"","","","","","image-keyboard-response","81","2.0.0","126672","ptsspplls8p","2097","stimuli/38_100.jpg","f","response","f","true"
"","","","","","html-keyboard-response","82","2.0.0","127174","ptsspplls8p","null","<p style=""border: 5px solid green;"">Correct!</p>","null","","",""
"","","","","","html-keyboard-response","83","2.0.0","128179","ptsspplls8p","null","<div style=""font-size: 75px;"">+</div>","null","","",""
"","","","","","image-keyboard-response","84","2.0.0","129378","ptsspplls8p","1196","stimuli/26_0.jpg","f","response","f","true"
"","","","","","html-keyboard-response","85","2.0.0","129880","ptsspplls8p","null","<p style=""border: 5px solid green;"">Correct!</p>","null","","",""
"","","","","","html-keyboard-response","86","2.0.0","130883","ptsspplls8p","null","<div style=""font-size: 75px;"">+</div>","null","","",""
"","","","","","image-keyboard-response","87","2.0.0","132140","ptsspplls8p","1255","stimuli/21_100_R.jpg","j","response","j","true"
"","","","","","html-keyboard-response","88","2.0.0","132642","ptsspplls8p","null","<p style=""border: 5px solid green;"">Correct!</p>","null","","",""
"","","","","","html-keyboard-response","89","2.0.0","133646","ptsspplls8p","null","<div style=""font-size: 75px;"">+</div>","null","","",""
"","","","","","image-keyboard-response","90","2.0.0","134515","ptsspplls8p","867","stimuli/37_0.jpg","f","response","f","true"
"","","","","","html-keyboard-response","91","2.0.0","135018","ptsspplls8p","null","<p style=""border: 5px solid green;"">Correct!</p>","null","","",""
"","","","","","html-keyboard-response","92","2.0.0","136021","ptsspplls8p","null","<div style=""font-size: 75px;"">+</div>","null","","",""
"","","","","","image-keyboard-response","93","2.0.0","137395","ptsspplls8p","1372","stimuli/6_50.jpg","f","response","f","true"
"","","","","","html-keyboard-response","94","2.0.0","137900","ptsspplls8p","null","<p style=""border: 5px solid green;"">Correct!</p>","null","","",""
"","","","","","html-keyboard-response","95","2.0.0","138903","ptsspplls8p","null","<div style=""font-size: 75px;"">+</div>","null","","",""
"","","","","","image-keyboard-response","96","2.0.0","140256","ptsspplls8p","1350","stimuli/44_50.jpg","f","response","f","true"
"","","","","","html-keyboard-response","97","2.0.0","140757","ptsspplls8p","null","<p style=""border: 5px solid green;"">Correct!</p>","null","","",""
"","","","","","html-keyboard-response","98","2.0.0","141760","ptsspplls8p","null","<div style=""font-size: 75px;"">+</div>","null","","",""
"","","","","","image-keyboard-response","99","2.0.0","143181","ptsspplls8p","1418","stimuli/40_150.jpg","j","response","f","false"
"","","","","","html-keyboard-response","100","2.0.0","143684","ptsspplls8p","null","<p style=""border: 5px solid red;"">Incorrect.</p>","null","","",""
"","","","","","html-keyboard-response","101","2.0.0","144687","ptsspplls8p","null","<div style=""font-size: 75px;"">+</div>","null","","",""
"","","","","","image-keyboard-response","102","2.0.0","145436","ptsspplls8p","746","stimuli/24_0.jpg","f","response","f","true"
"","","","","","html-keyboard-response","103","2.0.0","145938","ptsspplls8p","null","<p style=""border: 5px solid green;"">Correct!</p>","null","","",""
"","","","","","html-keyboard-response","104","2.0.0","146941","ptsspplls8p","null","<div style=""font-size: 75px;"">+</div>","null","","",""
"","","","","","image-keyboard-response","105","2.0.0","149270","ptsspplls8p","2327","stimuli/13_150_R.jpg","j","response","j","true"
"","","","","","html-keyboard-response","106","2.0.0","149773","ptsspplls8p","null","<p style=""border: 5px solid green;"">Correct!</p>","null","","",""
"","","","","","html-keyboard-response","107","2.0.0","150776","ptsspplls8p","null","<div style=""font-size: 75px;"">+</div>","null","","",""
"","","","","","image-keyboard-response","108","2.0.0","152934","ptsspplls8p","2156","stimuli/47_150.jpg","f","response","f","true"
"","","","","","html-keyboard-response","109","2.0.0","153435","ptsspplls8p","null","<p style=""border: 5px solid green;"">Correct!</p>","null","","",""
"","","","","","html-keyboard-response","110","2.0.0","154438","ptsspplls8p","null","<div style=""font-size: 75px;"">+</div>","null","","",""
"","","","","","image-keyboard-response","111","2.0.0","155389","ptsspplls8p","948","stimuli/20_50.jpg","f","response","f","true"
"","","","","","html-keyboard-response","112","2.0.0","155891","ptsspplls8p","null","<p style=""border: 5px solid green;"">Correct!</p>","null","","",""
"","","","","","html-keyboard-response","113","2.0.0","156894","ptsspplls8p","null","<div style=""font-size: 75px;"">+</div>","null","","",""
"","","","","","image-keyboard-response","114","2.0.0","158485","ptsspplls8p","1588","stimuli/34_150_R.jpg","j","response","j","true"
"","","","","","html-keyboard-response","115","2.0.0","158988","ptsspplls8p","null","<p style=""border: 5px solid green;"">Correct!</p>","null","","",""
"","","","","","html-keyboard-response","116","2.0.0","159990","ptsspplls8p","null","<div style=""font-size: 75px;"">+</div>","null","","",""
"","","","","","image-keyboard-response","117","2.0.0","162169","ptsspplls8p","2176","stimuli/19_50_R.jpg","j","response","j","true"
"","","","","","html-keyboard-response","118","2.0.0","162670","ptsspplls8p","null","<p style=""border: 5px solid green;"">Correct!</p>","null","","",""
"","","","","","html-keyboard-response","119","2.0.0","163674","ptsspplls8p","null","<div style=""font-size: 75px;"">+</div>","null","","",""
"","","","","","image-keyboard-response","120","2.0.0","166940","ptsspplls8p","3263","stimuli/23_100_R.jpg","j","response","j","true"
"","","","","","html-keyboard-response","121","2.0.0","167442","ptsspplls8p","null","<p style=""border: 5px solid green;"">Correct!</p>","null","","",""
"","","","","","html-keyboard-response","122","2.0.0","168445","ptsspplls8p","null","<div style=""font-size: 75px;"">+</div>","null","","",""
"","","","","","image-keyboard-response","123","2.0.0","171647","ptsspplls8p","3198","stimuli/30_150_R.jpg","j","response","j","true"
"","","","","","html-keyboard-response","124","2.0.0","172149","ptsspplls8p","null","<p style=""border: 5px solid green;"">Correct!</p>","null","","",""
"","","","","","html-keyboard-response","125","2.0.0","173153","ptsspplls8p","null","<div style=""font-size: 75px;"">+</div>","null","","",""
"","","","","","image-keyboard-response","126","2.0.0","174582","ptsspplls8p","1427","stimuli/47_0_R.jpg","j","response","j","true"
"","","","","","html-keyboard-response","127","2.0.0","174591","ptsspplls8p","7","<p style=""border: 5px solid green;"">Correct!</p>","k","","",""
"","","","","","html-keyboard-response","128","2.0.0","175594","ptsspplls8p","null","<div style=""font-size: 75px;"">+</div>","null","","",""
"","","","","","image-keyboard-response","129","2.0.0","177010","ptsspplls8p","1414","stimuli/33_0_R.jpg","f","response","j","false"
"","","","","","html-keyboard-response","130","2.0.0","177512","ptsspplls8p","null","<p style=""border: 5px solid red;"">Incorrect.</p>","null","","",""
"","","","","","html-keyboard-response","131","2.0.0","178516","ptsspplls8p","null","<div style=""font-size: 75px;"">+</div>","null","","",""
"","","","","","image-keyboard-response","132","2.0.0","179816","ptsspplls8p","1298","stimuli/21_50_R.jpg","j","response","j","true"
"","","","","","html-keyboard-response","133","2.0.0","180319","ptsspplls8p","null","<p style=""border: 5px solid green;"">Correct!</p>","null","","",""
"","","","","","html-keyboard-response","134","2.0.0","181322","ptsspplls8p","null","<div style=""font-size: 75px;"">+</div>","null","","",""
"","","","","","image-keyboard-response","135","2.0.0","183205","ptsspplls8p","1881","stimuli/36_50.jpg","f","response","f","true"
"","","","","","html-keyboard-response","136","2.0.0","183708","ptsspplls8p","null","<p style=""border: 5px solid green;"">Correct!</p>","null","","",""
"","","","","","html-keyboard-response","137","2.0.0","184711","ptsspplls8p","null","<div style=""font-size: 75px;"">+</div>","null","","",""
"","","","","","image-keyboard-response","138","2.0.0","187347","ptsspplls8p","2634","stimuli/27_100.jpg","f","response","f","true"
"","","","","","html-keyboard-response","139","2.0.0","187851","ptsspplls8p","null","<p style=""border: 5px solid green;"">Correct!</p>","null","","",""
"","","","","","html-keyboard-response","140","2.0.0","188855","ptsspplls8p","null","<div style=""font-size: 75px;"">+</div>","null","","",""
"","","","","","image-keyboard-response","141","2.0.0","189696","ptsspplls8p","839","stimuli/29_0.jpg","f","response","f","true"
"","","","","","html-keyboard-response","142","2.0.0","190198","ptsspplls8p","null","<p style=""border: 5px solid green;"">Correct!</p>","null","","",""
"","","","","","html-keyboard-response","143","2.0.0","191202","ptsspplls8p","null","<div style=""font-size: 75px;"">+</div>","null","","",""
"","","","","","image-keyboard-response","144","2.0.0","197228","ptsspplls8p","6024","stimuli/43_150_R.jpg","j","response","j","true"
"","","","","","html-keyboard-response","145","2.0.0","197732","ptsspplls8p","null","<p style=""border: 5px solid green;"">Correct!</p>","null","","",""
"","","","","","html-keyboard-response","146","2.0.0","198735","ptsspplls8p","null","<div style=""font-size: 75px;"">+</div>","null","","",""
"","","","","","image-keyboard-response","147","2.0.0","199701","ptsspplls8p","963","stimuli/39_0_R.jpg","j","response","j","true"
"","","","","","html-keyboard-response","148","2.0.0","200203","ptsspplls8p","null","<p style=""border: 5px solid green;"">Correct!</p>","null","","",""
"","","","","","html-keyboard-response","149","2.0.0","230207","ptsspplls8p","null","<p> Take a break! Experiment continues in 30 seconds . </p>","null","","",""
"","","","","","html-keyboard-response","150","2.0.0","231211","ptsspplls8p","null","<div style=""font-size: 75px;"">+</div>","null","","",""
"","","","","","image-keyboard-response","151","2.0.0","232718","ptsspplls8p","1504","stimuli/40_0_R.jpg","j","response","j","true"
"","","","","","html-keyboard-response","152","2.0.0","233221","ptsspplls8p","null","<p style=""border: 5px solid green;"">Correct!</p>","null","","",""
"","","","","","html-keyboard-response","153","2.0.0","234224","ptsspplls8p","null","<div style=""font-size: 75px;"">+</div>","null","","",""
"","","","","","image-keyboard-response","154","2.0.0","236380","ptsspplls8p","2154","stimuli/15_150_R.jpg","j","response","j","true"
"","","","","","html-keyboard-response","155","2.0.0","236883","ptsspplls8p","null","<p style=""border: 5px solid green;"">Correct!</p>","null","","",""
"","","","","","html-keyboard-response","156","2.0.0","237886","ptsspplls8p","null","<div style=""font-size: 75px;"">+</div>","null","","",""
"","","","","","image-keyboard-response","157","2.0.0","239741","ptsspplls8p","1852","stimuli/38_150_R.jpg","j","response","j","true"
"","","","","","html-keyboard-response","158","2.0.0","240244","ptsspplls8p","null","<p style=""border: 5px solid green;"">Correct!</p>","null","","",""
"","","","","","html-keyboard-response","159","2.0.0","241247","ptsspplls8p","null","<div style=""font-size: 75px;"">+</div>","null","","",""
"","","","","","image-keyboard-response","160","2.0.0","243848","ptsspplls8p","2598","stimuli/37_150.jpg","f","response","f","true"
"","","","","","html-keyboard-response","161","2.0.0","244351","ptsspplls8p","null","<p style=""border: 5px solid green;"">Correct!</p>","null","","",""
"","","","","","html-keyboard-response","162","2.0.0","245354","ptsspplls8p","null","<div style=""font-size: 75px;"">+</div>","null","","",""
"","","","","","image-keyboard-response","163","2.0.0","248261","ptsspplls8p","2904","stimuli/9_50_R.jpg","j","response","j","true"
"","","","","","html-keyboard-response","164","2.0.0","248764","ptsspplls8p","null","<p style=""border: 5px solid green;"">Correct!</p>","null","","",""
"","","","","","html-keyboard-response","165","2.0.0","249766","ptsspplls8p","null","<div style=""font-size: 75px;"">+</div>","null","","",""
"","","","","","image-keyboard-response","166","2.0.0","251039","ptsspplls8p","1271","stimuli/19_50.jpg","f","response","f","true"
"","","","","","html-keyboard-response","167","2.0.0","251542","ptsspplls8p","null","<p style=""border: 5px solid green;"">Correct!</p>","null","","",""
"","","","","","html-keyboard-response","168","2.0.0","252546","ptsspplls8p","null","<div style=""font-size: 75px;"">+</div>","null","","",""
"","","","","","image-keyboard-response","169","2.0.0","253475","ptsspplls8p","926","stimuli/23_0_R.jpg","j","response","j","true"
"","","","","","html-keyboard-response","170","2.0.0","253978","ptsspplls8p","null","<p style=""border: 5px solid green;"">Correct!</p>","null","","",""
"","","","","","html-keyboard-response","171","2.0.0","254981","ptsspplls8p","null","<div style=""font-size: 75px;"">+</div>","null","","",""
"","","","","","image-keyboard-response","172","2.0.0","256622","ptsspplls8p","1638","stimuli/43_0.jpg","f","response","f","true"
"","","","","","html-keyboard-response","173","2.0.0","257125","ptsspplls8p","null","<p style=""border: 5px solid green;"">Correct!</p>","null","","",""
"","","","","","html-keyboard-response","174","2.0.0","258129","ptsspplls8p","null","<div style=""font-size: 75px;"">+</div>","null","","",""
"","","","","","image-keyboard-response","175","2.0.0","259911","ptsspplls8p","1779","stimuli/5_50.jpg","f","response","f","true"
"","","","","","html-keyboard-response","176","2.0.0","260412","ptsspplls8p","null","<p style=""border: 5px solid green;"">Correct!</p>","null","","",""
"","","","","","html-keyboard-response","177","2.0.0","261416","ptsspplls8p","null","<div style=""font-size: 75px;"">+</div>","null","","",""
"","","","","","image-keyboard-response","178","2.0.0","262750","ptsspplls8p","1331","stimuli/4_50_R.jpg","j","response","j","true"
"","","","","","html-keyboard-response","179","2.0.0","263253","ptsspplls8p","null","<p style=""border: 5px solid green;"">Correct!</p>","null","","",""
"","","","","","html-keyboard-response","180","2.0.0","264256","ptsspplls8p","null","<div style=""font-size: 75px;"">+</div>","null","","",""
"","","","","","image-keyboard-response","181","2.0.0","265310","ptsspplls8p","1052","stimuli/24_50.jpg","f","response","f","true"
"","","","","","html-keyboard-response","182","2.0.0","265812","ptsspplls8p","null","<p style=""border: 5px solid green;"">Correct!</p>","null","","",""
"","","","","","html-keyboard-response","183","2.0.0","266815","ptsspplls8p","null","<div style=""font-size: 75px;"">+</div>","null","","",""
"","","","","","image-keyboard-response","184","2.0.0","268271","ptsspplls8p","1453","stimuli/5_50_R.jpg","j","response","j","true"
"","","","","","html-keyboard-response","185","2.0.0","268774","ptsspplls8p","null","<p style=""border: 5px solid green;"">Correct!</p>","null","","",""
"","","","","","html-keyboard-response","186","2.0.0","269777","ptsspplls8p","null","<div style=""font-size: 75px;"">+</div>","null","","",""
"","","","","","image-keyboard-response","187","2.0.0","273162","ptsspplls8p","3383","stimuli/44_150.jpg","f","response","f","true"
"","","","","","html-keyboard-response","188","2.0.0","273665","ptsspplls8p","null","<p style=""border: 5px solid green;"">Correct!</p>","null","","",""
"","","","","","html-keyboard-response","189","2.0.0","274668","ptsspplls8p","null","<div style=""font-size: 75px;"">+</div>","null","","",""
"","","","","","image-keyboard-response","190","2.0.0","275732","ptsspplls8p","1062","stimuli/33_50.jpg","f","response","f","true"
"","","","","","html-keyboard-response","191","2.0.0","276236","ptsspplls8p","null","<p style=""border: 5px solid green;"">Correct!</p>","null","","",""
"","","","","","html-keyboard-response","192","2.0.0","277240","ptsspplls8p","null","<div style=""font-size: 75px;"">+</div>","null","","",""
"","","","","","image-keyboard-response","193","2.0.0","278155","ptsspplls8p","913","stimuli/20_150_R.jpg","j","response","j","true"
"","","","","","html-keyboard-response","194","2.0.0","278657","ptsspplls8p","null","<p style=""border: 5px solid green;"">Correct!</p>","null","","",""
"","","","","","html-keyboard-response","195","2.0.0","279660","ptsspplls8p","null","<div style=""font-size: 75px;"">+</div>","null","","",""
"","","","","","image-keyboard-response","196","2.0.0","281111","ptsspplls8p","1448","stimuli/45_100_R.jpg","j","response","j","true"
"","","","","","html-keyboard-response","197","2.0.0","281613","ptsspplls8p","null","<p style=""border: 5px solid green;"">Correct!</p>","null","","",""
"","","","","","html-keyboard-response","198","2.0.0","282616","ptsspplls8p","null","<div style=""font-size: 75px;"">+</div>","null","","",""
"","","","","","image-keyboard-response","199","2.0.0","285027","ptsspplls8p","2408","stimuli/19_150_R.jpg","j","response","j","true"
"","","","","","html-keyboard-response","200","2.0.0","285529","ptsspplls8p","null","<p style=""border: 5px solid green;"">Correct!</p>","null","","",""
"","","","","","html-keyboard-response","201","2.0.0","286533","ptsspplls8p","null","<div style=""font-size: 75px;"">+</div>","null","","",""
"","","","","","image-keyboard-response","202","2.0.0","289515","ptsspplls8p","2979","stimuli/26_50_R.jpg","j","response","j","true"
"","","","","","html-keyboard-response","203","2.0.0","290018","ptsspplls8p","null","<p style=""border: 5px solid green;"">Correct!</p>","null","","",""
"","","","","","html-keyboard-response","204","2.0.0","291021","ptsspplls8p","null","<div style=""font-size: 75px;"">+</div>","null","","",""
"","","","","","image-keyboard-response","205","2.0.0","291948","ptsspplls8p","924","stimuli/10_0.jpg","f","response","f","true"
"","","","","","html-keyboard-response","206","2.0.0","292450","ptsspplls8p","null","<p style=""border: 5px solid green;"">Correct!</p>","null","","",""
"","","","","","html-keyboard-response","207","2.0.0","293452","ptsspplls8p","null","<div style=""font-size: 75px;"">+</div>","null","","",""
"","","","","","image-keyboard-response","208","2.0.0","295118","ptsspplls8p","1664","stimuli/4_100.jpg","f","response","f","true"
"","","","","","html-keyboard-response","209","2.0.0","295620","ptsspplls8p","null","<p style=""border: 5px solid green;"">Correct!</p>","null","","",""
"","","","","","html-keyboard-response","210","2.0.0","296623","ptsspplls8p","null","<div style=""font-size: 75px;"">+</div>","null","","",""
"","","","","","image-keyboard-response","211","2.0.0","298165","ptsspplls8p","1539","stimuli/38_150.jpg","j","response","f","false"
"","","","","","html-keyboard-response","212","2.0.0","298667","ptsspplls8p","null","<p style=""border: 5px solid red;"">Incorrect.</p>","null","","",""
"","","","","","html-keyboard-response","213","2.0.0","299670","ptsspplls8p","null","<div style=""font-size: 75px;"">+</div>","null","","",""
"","","","","","image-keyboard-response","214","2.0.0","300845","ptsspplls8p","1172","stimuli/13_50_R.jpg","j","response","j","true"
"","","","","","html-keyboard-response","215","2.0.0","301348","ptsspplls8p","null","<p style=""border: 5px solid green;"">Correct!</p>","null","","",""
"","","","","","html-keyboard-response","216","2.0.0","302351","ptsspplls8p","null","<div style=""font-size: 75px;"">+</div>","null","","",""
"","","","","","image-keyboard-response","217","2.0.0","309566","ptsspplls8p","7213","stimuli/36_150_R.jpg","j","response","j","true"
"","","","","","html-keyboard-response","218","2.0.0","310068","ptsspplls8p","null","<p style=""border: 5px solid green;"">Correct!</p>","null","","",""
"","","","","","html-keyboard-response","219","2.0.0","311072","ptsspplls8p","null","<div style=""font-size: 75px;"">+</div>","null","","",""
"","","","","","image-keyboard-response","220","2.0.0","312919","ptsspplls8p","1845","stimuli/3_50_R.jpg","j","response","j","true"
"","","","","","html-keyboard-response","221","2.0.0","313421","ptsspplls8p","null","<p style=""border: 5px solid green;"">Correct!</p>","null","","",""
"","","","","","html-keyboard-response","222","2.0.0","314425","ptsspplls8p","null","<div style=""font-size: 75px;"">+</div>","null","","",""
"","","","","","image-keyboard-response","223","2.0.0","315372","ptsspplls8p","945","stimuli/12_0_R.jpg","f","response","j","false"
"","","","","","html-keyboard-response","224","2.0.0","315874","ptsspplls8p","null","<p style=""border: 5px solid red;"">Incorrect.</p>","null","","",""
"","","","","","html-keyboard-response","225","2.0.0","316878","ptsspplls8p","null","<div style=""font-size: 75px;"">+</div>","null","","",""
"","","","","","image-keyboard-response","226","2.0.0","319361","ptsspplls8p","2481","stimuli/19_150.jpg","f","response","f","true"
"","","","","","html-keyboard-response","227","2.0.0","319864","ptsspplls8p","null","<p style=""border: 5px solid green;"">Correct!</p>","null","","",""
"","","","","","html-keyboard-response","228","2.0.0","320867","ptsspplls8p","null","<div style=""font-size: 75px;"">+</div>","null","","",""
"","","","","","image-keyboard-response","229","2.0.0","322399","ptsspplls8p","1529","stimuli/46_100_R.jpg","j","response","j","true"
"","","","","","html-keyboard-response","230","2.0.0","322901","ptsspplls8p","null","<p style=""border: 5px solid green;"">Correct!</p>","null","","",""
"","","","","","html-keyboard-response","231","2.0.0","323904","ptsspplls8p","null","<div style=""font-size: 75px;"">+</div>","null","","",""
"","","","","","image-keyboard-response","232","2.0.0","325390","ptsspplls8p","1484","stimuli/8_50.jpg","f","response","f","true"
"","","","","","html-keyboard-response","233","2.0.0","325892","ptsspplls8p","null","<p style=""border: 5px solid green;"">Correct!</p>","null","","",""
"","","","","","html-keyboard-response","234","2.0.0","326895","ptsspplls8p","null","<div style=""font-size: 75px;"">+</div>","null","","",""
"","","","","","image-keyboard-response","235","2.0.0","327916","ptsspplls8p","1019","stimuli/46_0.jpg","f","response","f","true"
"","","","","","html-keyboard-response","236","2.0.0","328419","ptsspplls8p","null","<p style=""border: 5px solid green;"">Correct!</p>","null","","",""
"","","","","","html-keyboard-response","237","2.0.0","329422","ptsspplls8p","null","<div style=""font-size: 75px;"">+</div>","null","","",""
"","","","","","image-keyboard-response","238","2.0.0","330897","ptsspplls8p","1472","stimuli/32_150_R.jpg","j","response","j","true"
"","","","","","html-keyboard-response","239","2.0.0","331399","ptsspplls8p","null","<p style=""border: 5px solid green;"">Correct!</p>","null","","",""
"","","","","","html-keyboard-response","240","2.0.0","332402","ptsspplls8p","null","<div style=""font-size: 75px;"">+</div>","null","","",""
"","","","","","image-keyboard-response","241","2.0.0","333725","ptsspplls8p","1321","stimuli/44_50_R.jpg","j","response","j","true"
"","","","","","html-keyboard-response","242","2.0.0","334229","ptsspplls8p","null","<p style=""border: 5px solid green;"">Correct!</p>","null","","",""
"","","","","","html-keyboard-response","243","2.0.0","335232","ptsspplls8p","null","<div style=""font-size: 75px;"">+</div>","null","","",""
"","","","","","image-keyboard-response","244","2.0.0","337898","ptsspplls8p","2663","stimuli/25_0_R.jpg","j","response","j","true"
"","","","","","html-keyboard-response","245","2.0.0","338401","ptsspplls8p","null","<p style=""border: 5px solid green;"">Correct!</p>","null","","",""
"","","","","","html-keyboard-response","246","2.0.0","339405","ptsspplls8p","null","<div style=""font-size: 75px;"">+</div>","null","","",""
"","","","","","image-keyboard-response","247","2.0.0","346255","ptsspplls8p","6848","stimuli/4_0_R.jpg","j","response","j","true"
"","","","","","html-keyboard-response","248","2.0.0","346757","ptsspplls8p","null","<p style=""border: 5px solid green;"">Correct!</p>","null","","",""
"","","","","","html-keyboard-response","249","2.0.0","347760","ptsspplls8p","null","<div style=""font-size: 75px;"">+</div>","null","","",""
"","","","","","image-keyboard-response","250","2.0.0","348954","ptsspplls8p","1192","stimuli/6_100_R.jpg","j","response","j","true"
"","","","","","html-keyboard-response","251","2.0.0","349455","ptsspplls8p","null","<p style=""border: 5px solid green;"">Correct!</p>","null","","",""
"","","","","","html-keyboard-response","252","2.0.0","350458","ptsspplls8p","null","<div style=""font-size: 75px;"">+</div>","null","","",""
"","","","","","image-keyboard-response","253","2.0.0","352009","ptsspplls8p","1548","stimuli/45_150.jpg","f","response","f","true"
"","","","","","html-keyboard-response","254","2.0.0","352511","ptsspplls8p","null","<p style=""border: 5px solid green;"">Correct!</p>","null","","",""
"","","","","","html-keyboard-response","255","2.0.0","353514","ptsspplls8p","null","<div style=""font-size: 75px;"">+</div>","null","","",""
"","","","","","image-keyboard-response","256","2.0.0","355057","ptsspplls8p","1541","stimuli/47_100.jpg","f","response","f","true"
"","","","","","html-keyboard-response","257","2.0.0","355560","ptsspplls8p","null","<p style=""border: 5px solid green;"">Correct!</p>","null","","",""
"","","","","","html-keyboard-response","258","2.0.0","356563","ptsspplls8p","null","<div style=""font-size: 75px;"">+</div>","null","","",""
"","","","","","image-keyboard-response","259","2.0.0","358038","ptsspplls8p","1473","stimuli/3_100.jpg","f","response","f","true"
"","","","","","html-keyboard-response","260","2.0.0","358541","ptsspplls8p","null","<p style=""border: 5px solid green;"">Correct!</p>","null","","",""
"","","","","","html-keyboard-response","261","2.0.0","359544","ptsspplls8p","null","<div style=""font-size: 75px;"">+</div>","null","","",""
"","","","","","image-keyboard-response","262","2.0.0","362758","ptsspplls8p","3211","stimuli/26_100.jpg","f","response","f","true"
"","","","","","html-keyboard-response","263","2.0.0","363260","ptsspplls8p","null","<p style=""border: 5px solid green;"">Correct!</p>","null","","",""
"","","","","","html-keyboard-response","264","2.0.0","364263","ptsspplls8p","null","<div style=""font-size: 75px;"">+</div>","null","","",""
"","","","","","image-keyboard-response","265","2.0.0","365038","ptsspplls8p","772","stimuli/11_0.jpg","f","response","f","true"
"","","","","","html-keyboard-response","266","2.0.0","365540","ptsspplls8p","null","<p style=""border: 5px solid green;"">Correct!</p>","null","","",""
"","","","","","html-keyboard-response","267","2.0.0","366544","ptsspplls8p","null","<div style=""font-size: 75px;"">+</div>","null","","",""
"","","","","","image-keyboard-response","268","2.0.0","367860","ptsspplls8p","1313","stimuli/46_0_R.jpg","j","response","j","true"
"","","","","","html-keyboard-response","269","2.0.0","368361","ptsspplls8p","null","<p style=""border: 5px solid green;"">Correct!</p>","null","","",""
"","","","","","html-keyboard-response","270","2.0.0","369365","ptsspplls8p","null","<div style=""font-size: 75px;"">+</div>","null","","",""
"","","","","","image-keyboard-response","271","2.0.0","370133","ptsspplls8p","766","stimuli/36_0.jpg","f","response","f","true"
"","","","","","html-keyboard-response","272","2.0.0","370636","ptsspplls8p","null","<p style=""border: 5px solid green;"">Correct!</p>","null","","",""
"","","","","","html-keyboard-response","273","2.0.0","371640","ptsspplls8p","null","<div style=""font-size: 75px;"">+</div>","null","","",""
"","","","","","image-keyboard-response","274","2.0.0","374005","ptsspplls8p","2363","stimuli/46_100.jpg","j","response","f","false"
"","","","","","html-keyboard-response","275","2.0.0","374507","ptsspplls8p","null","<p style=""border: 5px solid red;"">Incorrect.</p>","null","","",""
"","","","","","html-keyboard-response","276","2.0.0","375510","ptsspplls8p","null","<div style=""font-size: 75px;"">+</div>","null","","",""
"","","","","","image-keyboard-response","277","2.0.0","377017","ptsspplls8p","1505","stimuli/6_0_R.jpg","j","response","j","true"
"","","","","","html-keyboard-response","278","2.0.0","377519","ptsspplls8p","null","<p style=""border: 5px solid green;"">Correct!</p>","null","","",""
"","","","","","html-keyboard-response","279","2.0.0","378523","ptsspplls8p","null","<div style=""font-size: 75px;"">+</div>","null","","",""
"","","","","","image-keyboard-response","280","2.0.0","379905","ptsspplls8p","1380","stimuli/42_50_R.jpg","j","response","j","true"
"","","","","","html-keyboard-response","281","2.0.0","380407","ptsspplls8p","null","<p style=""border: 5px solid green;"">Correct!</p>","null","","",""
"","","","","","html-keyboard-response","282","2.0.0","381410","ptsspplls8p","null","<div style=""font-size: 75px;"">+</div>","null","","",""
"","","","","","image-keyboard-response","283","2.0.0","383295","ptsspplls8p","1883","stimuli/10_100_R.jpg","j","response","j","true"
"","","","","","html-keyboard-response","284","2.0.0","383797","ptsspplls8p","null","<p style=""border: 5px solid green;"">Correct!</p>","null","","",""
"","","","","","html-keyboard-response","285","2.0.0","384800","ptsspplls8p","null","<div style=""font-size: 75px;"">+</div>","null","","",""
"","","","","","image-keyboard-response","286","2.0.0","386256","ptsspplls8p","1452","stimuli/24_100.jpg","f","response","f","true"
"","","","","","html-keyboard-response","287","2.0.0","386759","ptsspplls8p","null","<p style=""border: 5px solid green;"">Correct!</p>","null","","",""
"","","","","","html-keyboard-response","288","2.0.0","387761","ptsspplls8p","null","<div style=""font-size: 75px;"">+</div>","null","","",""
"","","","","","image-keyboard-response","289","2.0.0","389561","ptsspplls8p","1797","stimuli/2_150.jpg","f","response","f","true"
"","","","","","html-keyboard-response","290","2.0.0","390064","ptsspplls8p","null","<p style=""border: 5px solid green;"">Correct!</p>","null","","",""
"","","","","","html-keyboard-response","291","2.0.0","391068","ptsspplls8p","null","<div style=""font-size: 75px;"">+</div>","null","","",""
"","","","","","image-keyboard-response","292","2.0.0","391881","ptsspplls8p","811","stimuli/8_0.jpg","f","response","f","true"
"","","","","","html-keyboard-response","293","2.0.0","392384","ptsspplls8p","null","<p style=""border: 5px solid green;"">Correct!</p>","null","","",""
"","","","","","html-keyboard-response","294","2.0.0","393670","ptsspplls8p","1285","<p>Thank you for participating!</p><p>Please press space to answer our survey.</p>"," ","","",""
"","","","","","survey-html-form","295","null","468676","ptsspplls8p","75004","","{""response_1"":""Clear and lively"",""response_2"":""Clear and lively"",""response_3"":""Moderately clear and lively"",""response_4"":""Clear and lively"",""response_5"":""Clear and lively"",""response_6"":""Moderately clear and lively"",""response_7"":""Dim and vague; flat"",""response_8"":""Perfectly clear and lively as real seeing"",""response_9"":""Moderately clear and lively"",""response_10"":""Dim and vague; flat"",""response_11"":""Moderately clear and lively"",""response_12"":""Clear and lively"",""response_13"":""Moderately clear and lively"",""response_14"":""Clear and lively"",""response_15"":""Dim and vague; flat"",""response_16"":""Dim and vague; flat""}","","",""
"","","","","","survey-html-form","296","null","575593","ptsspplls8p","106917","","{""age"":""21"",""gender"":""male"",""education"":""some-college"",""handedness"":""right"",""vision"":""normal"",""technical_difficulties"":""When inputing a key that is not \""f\"" or \""j\"", it just skipped the trial."",""knowledge_check"":""Experimentation on vivid rotation in the mind and understanding if you are able to visualize the image based on a rotational scale or how detailed the image is.""}","","",""
