"success","timeout","failed_images","failed_audio","failed_video","trial_type","trial_index","plugin_version","time_elapsed","random_id","rt","stimulus","response","task","correct_response","correct"
"true","false","[]","[]","[]","preload","0","2.0.0","5177","purc2c07up1","","","","","",""
"true","","","","","fullscreen","1","2.0.0","7977","purc2c07up1","1792","","","","",""
"","","","","","html-keyboard-response","2","2.0.0","9207","purc2c07up1","1227","Welcome to the experiment. Press any key to begin."," ","","",""
"","","","","","survey-text","3","2.0.0","11810","purc2c07up1","2597","","{""participant_id"":""turtle""}","","",""
"","","","","","html-keyboard-response","4","2.0.0","24350","purc2c07up1","12539","
        <p>Welcome to the experiment.</p>
        <p>In this task, you will see pairs of images.</p>
        <p>Your job is to determine whether the image on the right is a rotated version of the image on the left.</p>
        <p>Press the <strong>F</strong> key if the images are the same.</p>
        <p>Press the <strong>J</strong> key if the images are different.</p>
        <p>Press any key to begin.</p>
    "," ","","",""
"","","","","","html-keyboard-response","5","2.0.0","25353","purc2c07up1","null","<div style=""font-size: 75px;"">+</div>","null","","",""
"","","","","","image-keyboard-response","6","2.0.0","30114","purc2c07up1","4755","stimuli/22_50_R.jpg","j","response","j","true"
"","","","","","html-keyboard-response","7","2.0.0","30617","purc2c07up1","null","<p style=""border: 5px solid green;"">Correct!</p>","null","","",""
"","","","","","html-keyboard-response","8","2.0.0","31621","purc2c07up1","null","<div style=""font-size: 75px;"">+</div>","null","","",""
"","","","","","image-keyboard-response","9","2.0.0","35426","purc2c07up1","3803","stimuli/41_100_R.jpg","j","response","j","true"
"","","","","","html-keyboard-response","10","2.0.0","35929","purc2c07up1","null","<p style=""border: 5px solid green;"">Correct!</p>","null","","",""
"","","","","","html-keyboard-response","11","2.0.0","36936","purc2c07up1","null","<div style=""font-size: 75px;"">+</div>","null","","",""
"","","","","","image-keyboard-response","12","2.0.0","40480","purc2c07up1","3542","stimuli/45_50.jpg","f","response","f","true"
"","","","","","html-keyboard-response","13","2.0.0","40983","purc2c07up1","null","<p style=""border: 5px solid green;"">Correct!</p>","null","","",""
"","","","","","html-keyboard-response","14","2.0.0","41990","purc2c07up1","null","<div style=""font-size: 75px;"">+</div>","null","","",""
"","","","","","image-keyboard-response","15","2.0.0","44604","purc2c07up1","2611","stimuli/3_50.jpg","f","response","f","true"
"","","","","","html-keyboard-response","16","2.0.0","45107","purc2c07up1","null","<p style=""border: 5px solid green;"">Correct!</p>","null","","",""
"","","","","","html-keyboard-response","17","2.0.0","46111","purc2c07up1","null","<div style=""font-size: 75px;"">+</div>","null","","",""
"","","","","","image-keyboard-response","18","2.0.0","48328","purc2c07up1","2214","stimuli/43_50_R.jpg","j","response","j","true"
"","","","","","html-keyboard-response","19","2.0.0","48834","purc2c07up1","null","<p style=""border: 5px solid green;"">Correct!</p>","null","","",""
"","","","","","html-keyboard-response","20","2.0.0","49841","purc2c07up1","null","<div style=""font-size: 75px;"">+</div>","null","","",""
"","","","","","image-keyboard-response","21","2.0.0","52459","purc2c07up1","2615","stimuli/25_50_R.jpg","j","response","j","true"
"","","","","","html-keyboard-response","22","2.0.0","52963","purc2c07up1","null","<p style=""border: 5px solid green;"">Correct!</p>","null","","",""
"","","","","","html-keyboard-response","23","2.0.0","53968","purc2c07up1","null","<div style=""font-size: 75px;"">+</div>","null","","",""
"","","","","","image-keyboard-response","24","2.0.0","57191","purc2c07up1","3221","stimuli/39_150_R.jpg","j","response","j","true"
"","","","","","html-keyboard-response","25","2.0.0","57697","purc2c07up1","null","<p style=""border: 5px solid green;"">Correct!</p>","null","","",""
"","","","","","html-keyboard-response","26","2.0.0","58705","purc2c07up1","null","<div style=""font-size: 75px;"">+</div>","null","","",""
"","","","","","image-keyboard-response","27","2.0.0","62382","purc2c07up1","3675","stimuli/1_100_R.jpg","f","response","j","false"
"","","","","","html-keyboard-response","28","2.0.0","62886","purc2c07up1","null","<p style=""border: 5px solid red;"">Incorrect.</p>","null","","",""
"","","","","","html-keyboard-response","29","2.0.0","63890","purc2c07up1","null","<div style=""font-size: 75px;"">+</div>","null","","",""
"","","","","","image-keyboard-response","30","2.0.0","67733","purc2c07up1","3840","stimuli/11_0_R.jpg","f","response","j","false"
"","","","","","html-keyboard-response","31","2.0.0","68236","purc2c07up1","null","<p style=""border: 5px solid red;"">Incorrect.</p>","null","","",""
"","","","","","html-keyboard-response","32","2.0.0","69243","purc2c07up1","null","<div style=""font-size: 75px;"">+</div>","null","","",""
"","","","","","image-keyboard-response","33","2.0.0","77240","purc2c07up1","7995","stimuli/3_100_R.jpg","f","response","j","false"
"","","","","","html-keyboard-response","34","2.0.0","77744","purc2c07up1","null","<p style=""border: 5px solid red;"">Incorrect.</p>","null","","",""
"","","","","","html-keyboard-response","35","2.0.0","78747","purc2c07up1","null","<div style=""font-size: 75px;"">+</div>","null","","",""
"","","","","","image-keyboard-response","36","2.0.0","90337","purc2c07up1","11586","stimuli/29_150.jpg","f","response","f","true"
"","","","","","html-keyboard-response","37","2.0.0","90843","purc2c07up1","null","<p style=""border: 5px solid green;"">Correct!</p>","null","","",""
"","","","","","html-keyboard-response","38","2.0.0","91851","purc2c07up1","null","<div style=""font-size: 75px;"">+</div>","null","","",""
"","","","","","image-keyboard-response","39","2.0.0","95210","purc2c07up1","3357","stimuli/23_100.jpg","f","response","f","true"
"","","","","","html-keyboard-response","40","2.0.0","95715","purc2c07up1","null","<p style=""border: 5px solid green;"">Correct!</p>","null","","",""
"","","","","","html-keyboard-response","41","2.0.0","96722","purc2c07up1","null","<div style=""font-size: 75px;"">+</div>","null","","",""
"","","","","","image-keyboard-response","42","2.0.0","100236","purc2c07up1","3511","stimuli/33_150.jpg","f","response","f","true"
"","","","","","html-keyboard-response","43","2.0.0","100739","purc2c07up1","null","<p style=""border: 5px solid green;"">Correct!</p>","null","","",""
"","","","","","html-keyboard-response","44","2.0.0","101747","purc2c07up1","null","<div style=""font-size: 75px;"">+</div>","null","","",""
"","","","","","image-keyboard-response","45","2.0.0","106026","purc2c07up1","4278","stimuli/3_50_R.jpg","j","response","j","true"
"","","","","","html-keyboard-response","46","2.0.0","106529","purc2c07up1","null","<p style=""border: 5px solid green;"">Correct!</p>","null","","",""
"","","","","","html-keyboard-response","47","2.0.0","107534","purc2c07up1","null","<div style=""font-size: 75px;"">+</div>","null","","",""
"","","","","","image-keyboard-response","48","2.0.0","109356","purc2c07up1","1820","stimuli/36_0.jpg","f","response","f","true"
"","","","","","html-keyboard-response","49","2.0.0","109860","purc2c07up1","null","<p style=""border: 5px solid green;"">Correct!</p>","null","","",""
"","","","","","html-keyboard-response","50","2.0.0","110862","purc2c07up1","null","<div style=""font-size: 75px;"">+</div>","null","","",""
"","","","","","image-keyboard-response","51","2.0.0","115057","purc2c07up1","4192","stimuli/44_50.jpg","f","response","f","true"
"","","","","","html-keyboard-response","52","2.0.0","115562","purc2c07up1","null","<p style=""border: 5px solid green;"">Correct!</p>","null","","",""
"","","","","","html-keyboard-response","53","2.0.0","116569","purc2c07up1","null","<div style=""font-size: 75px;"">+</div>","null","","",""
"","","","","","image-keyboard-response","54","2.0.0","120192","purc2c07up1","3620","stimuli/27_50.jpg","f","response","f","true"
"","","","","","html-keyboard-response","55","2.0.0","120695","purc2c07up1","null","<p style=""border: 5px solid green;"">Correct!</p>","null","","",""
"","","","","","html-keyboard-response","56","2.0.0","121702","purc2c07up1","null","<div style=""font-size: 75px;"">+</div>","null","","",""
"","","","","","image-keyboard-response","57","2.0.0","126014","purc2c07up1","4308","stimuli/28_150.jpg","f","response","f","true"
"","","","","","html-keyboard-response","58","2.0.0","126515","purc2c07up1","null","<p style=""border: 5px solid green;"">Correct!</p>","null","","",""
"","","","","","html-keyboard-response","59","2.0.0","127518","purc2c07up1","null","<div style=""font-size: 75px;"">+</div>","null","","",""
"","","","","","image-keyboard-response","60","2.0.0","131450","purc2c07up1","3930","stimuli/18_150.jpg","f","response","f","true"
"","","","","","html-keyboard-response","61","2.0.0","131952","purc2c07up1","null","<p style=""border: 5px solid green;"">Correct!</p>","null","","",""
"","","","","","html-keyboard-response","62","2.0.0","132960","purc2c07up1","null","<div style=""font-size: 75px;"">+</div>","null","","",""
"","","","","","image-keyboard-response","63","2.0.0","134954","purc2c07up1","1992","stimuli/19_0_R.jpg","j","response","j","true"
"","","","","","html-keyboard-response","64","2.0.0","135456","purc2c07up1","null","<p style=""border: 5px solid green;"">Correct!</p>","null","","",""
"","","","","","html-keyboard-response","65","2.0.0","136458","purc2c07up1","null","<div style=""font-size: 75px;"">+</div>","null","","",""
"","","","","","image-keyboard-response","66","2.0.0","139739","purc2c07up1","3278","stimuli/9_100.jpg","f","response","f","true"
"","","","","","html-keyboard-response","67","2.0.0","140241","purc2c07up1","null","<p style=""border: 5px solid green;"">Correct!</p>","null","","",""
"","","","","","html-keyboard-response","68","2.0.0","141246","purc2c07up1","null","<div style=""font-size: 75px;"">+</div>","null","","",""
"","","","","","image-keyboard-response","69","2.0.0","144366","purc2c07up1","3118","stimuli/38_50.jpg","f","response","f","true"
"","","","","","html-keyboard-response","70","2.0.0","144871","purc2c07up1","null","<p style=""border: 5px solid green;"">Correct!</p>","null","","",""
"","","","","","html-keyboard-response","71","2.0.0","145878","purc2c07up1","null","<div style=""font-size: 75px;"">+</div>","null","","",""
"","","","","","image-keyboard-response","72","2.0.0","147259","purc2c07up1","1379","stimuli/1_0.jpg","f","response","f","true"
"","","","","","html-keyboard-response","73","2.0.0","147761","purc2c07up1","null","<p style=""border: 5px solid green;"">Correct!</p>","null","","",""
"","","","","","html-keyboard-response","74","2.0.0","148767","purc2c07up1","null","<div style=""font-size: 75px;"">+</div>","null","","",""
"","","","","","image-keyboard-response","75","2.0.0","150752","purc2c07up1","1983","stimuli/5_150_R.jpg","j","response","j","true"
"","","","","","html-keyboard-response","76","2.0.0","151255","purc2c07up1","null","<p style=""border: 5px solid green;"">Correct!</p>","null","","",""
"","","","","","html-keyboard-response","77","2.0.0","152262","purc2c07up1","null","<div style=""font-size: 75px;"">+</div>","null","","",""
"","","","","","image-keyboard-response","78","2.0.0","154389","purc2c07up1","2126","stimuli/24_150_R.jpg","f","response","j","false"
"","","","","","html-keyboard-response","79","2.0.0","154894","purc2c07up1","null","<p style=""border: 5px solid red;"">Incorrect.</p>","null","","",""
"","","","","","html-keyboard-response","80","2.0.0","155902","purc2c07up1","null","<div style=""font-size: 75px;"">+</div>","null","","",""
"","","","","","image-keyboard-response","81","2.0.0","160026","purc2c07up1","4122","stimuli/40_100_R.jpg","j","response","j","true"
"","","","","","html-keyboard-response","82","2.0.0","160529","purc2c07up1","null","<p style=""border: 5px solid green;"">Correct!</p>","null","","",""
"","","","","","html-keyboard-response","83","2.0.0","161536","purc2c07up1","null","<div style=""font-size: 75px;"">+</div>","null","","",""
"","","","","","image-keyboard-response","84","2.0.0","164495","purc2c07up1","2956","stimuli/44_0_R.jpg","j","response","j","true"
"","","","","","html-keyboard-response","85","2.0.0","164999","purc2c07up1","null","<p style=""border: 5px solid green;"">Correct!</p>","null","","",""
"","","","","","html-keyboard-response","86","2.0.0","166005","purc2c07up1","null","<div style=""font-size: 75px;"">+</div>","null","","",""
"","","","","","image-keyboard-response","87","2.0.0","168357","purc2c07up1","2350","stimuli/9_50.jpg","f","response","f","true"
"","","","","","html-keyboard-response","88","2.0.0","168861","purc2c07up1","null","<p style=""border: 5px solid green;"">Correct!</p>","null","","",""
"","","","","","html-keyboard-response","89","2.0.0","169866","purc2c07up1","null","<div style=""font-size: 75px;"">+</div>","null","","",""
"","","","","","image-keyboard-response","90","2.0.0","174232","purc2c07up1","4363","stimuli/25_100_R.jpg","j","response","j","true"
"","","","","","html-keyboard-response","91","2.0.0","174735","purc2c07up1","null","<p style=""border: 5px solid green;"">Correct!</p>","null","","",""
"","","","","","html-keyboard-response","92","2.0.0","175742","purc2c07up1","null","<div style=""font-size: 75px;"">+</div>","null","","",""
"","","","","","image-keyboard-response","93","2.0.0","177623","purc2c07up1","1877","stimuli/2_50.jpg","f","response","f","true"
"","","","","","html-keyboard-response","94","2.0.0","178128","purc2c07up1","null","<p style=""border: 5px solid green;"">Correct!</p>","null","","",""
"","","","","","html-keyboard-response","95","2.0.0","179131","purc2c07up1","null","<div style=""font-size: 75px;"">+</div>","null","","",""
"","","","","","image-keyboard-response","96","2.0.0","182916","purc2c07up1","3783","stimuli/35_150_R.jpg","j","response","j","true"
"","","","","","html-keyboard-response","97","2.0.0","183420","purc2c07up1","null","<p style=""border: 5px solid green;"">Correct!</p>","null","","",""
"","","","","","html-keyboard-response","98","2.0.0","184423","purc2c07up1","null","<div style=""font-size: 75px;"">+</div>","null","","",""
"","","","","","image-keyboard-response","99","2.0.0","187193","purc2c07up1","2768","stimuli/10_50_R.jpg","j","response","j","true"
"","","","","","html-keyboard-response","100","2.0.0","187697","purc2c07up1","null","<p style=""border: 5px solid green;"">Correct!</p>","null","","",""
"","","","","","html-keyboard-response","101","2.0.0","188701","purc2c07up1","null","<div style=""font-size: 75px;"">+</div>","null","","",""
"","","","","","image-keyboard-response","102","2.0.0","191012","purc2c07up1","2306","stimuli/37_0_R.jpg","j","response","j","true"
"","","","","","html-keyboard-response","103","2.0.0","191514","purc2c07up1","null","<p style=""border: 5px solid green;"">Correct!</p>","null","","",""
"","","","","","html-keyboard-response","104","2.0.0","192519","purc2c07up1","null","<div style=""font-size: 75px;"">+</div>","null","","",""
"","","","","","image-keyboard-response","105","2.0.0","196001","purc2c07up1","3478","stimuli/45_100.jpg","f","response","f","true"
"","","","","","html-keyboard-response","106","2.0.0","196506","purc2c07up1","null","<p style=""border: 5px solid green;"">Correct!</p>","null","","",""
"","","","","","html-keyboard-response","107","2.0.0","197513","purc2c07up1","null","<div style=""font-size: 75px;"">+</div>","null","","",""
"","","","","","image-keyboard-response","108","2.0.0","202776","purc2c07up1","5260","stimuli/46_100_R.jpg","j","response","j","true"
"","","","","","html-keyboard-response","109","2.0.0","203281","purc2c07up1","null","<p style=""border: 5px solid green;"">Correct!</p>","null","","",""
"","","","","","html-keyboard-response","110","2.0.0","204288","purc2c07up1","null","<div style=""font-size: 75px;"">+</div>","null","","",""
"","","","","","image-keyboard-response","111","2.0.0","206800","purc2c07up1","2509","stimuli/27_50_R.jpg","j","response","j","true"
"","","","","","html-keyboard-response","112","2.0.0","207304","purc2c07up1","null","<p style=""border: 5px solid green;"">Correct!</p>","null","","",""
"","","","","","html-keyboard-response","113","2.0.0","208311","purc2c07up1","null","<div style=""font-size: 75px;"">+</div>","null","","",""
"","","","","","image-keyboard-response","114","2.0.0","209424","purc2c07up1","1110","stimuli/15_0.jpg","f","response","f","true"
"","","","","","html-keyboard-response","115","2.0.0","209927","purc2c07up1","null","<p style=""border: 5px solid green;"">Correct!</p>","null","","",""
"","","","","","html-keyboard-response","116","2.0.0","210931","purc2c07up1","null","<div style=""font-size: 75px;"">+</div>","null","","",""
"","","","","","image-keyboard-response","117","2.0.0","214658","purc2c07up1","3724","stimuli/2_150_R.jpg","j","response","j","true"
"","","","","","html-keyboard-response","118","2.0.0","215160","purc2c07up1","null","<p style=""border: 5px solid green;"">Correct!</p>","null","","",""
"","","","","","html-keyboard-response","119","2.0.0","216165","purc2c07up1","null","<div style=""font-size: 75px;"">+</div>","null","","",""
"","","","","","image-keyboard-response","120","2.0.0","217297","purc2c07up1","1129","stimuli/12_0.jpg","f","response","f","true"
"","","","","","html-keyboard-response","121","2.0.0","217801","purc2c07up1","null","<p style=""border: 5px solid green;"">Correct!</p>","null","","",""
"","","","","","html-keyboard-response","122","2.0.0","218809","purc2c07up1","null","<div style=""font-size: 75px;"">+</div>","null","","",""
"","","","","","image-keyboard-response","123","2.0.0","220512","purc2c07up1","1700","stimuli/47_100.jpg","f","response","f","true"
"","","","","","html-keyboard-response","124","2.0.0","221015","purc2c07up1","null","<p style=""border: 5px solid green;"">Correct!</p>","null","","",""
"","","","","","html-keyboard-response","125","2.0.0","222021","purc2c07up1","null","<div style=""font-size: 75px;"">+</div>","null","","",""
"","","","","","image-keyboard-response","126","2.0.0","223647","purc2c07up1","1624","stimuli/12_150.jpg","j","response","f","false"
"","","","","","html-keyboard-response","127","2.0.0","224151","purc2c07up1","null","<p style=""border: 5px solid red;"">Incorrect.</p>","null","","",""
"","","","","","html-keyboard-response","128","2.0.0","225156","purc2c07up1","null","<div style=""font-size: 75px;"">+</div>","null","","",""
"","","","","","image-keyboard-response","129","2.0.0","227427","purc2c07up1","2268","stimuli/42_100_R.jpg","j","response","j","true"
"","","","","","html-keyboard-response","130","2.0.0","227929","purc2c07up1","null","<p style=""border: 5px solid green;"">Correct!</p>","null","","",""
"","","","","","html-keyboard-response","131","2.0.0","228937","purc2c07up1","null","<div style=""font-size: 75px;"">+</div>","null","","",""
"","","","","","image-keyboard-response","132","2.0.0","230096","purc2c07up1","1157","stimuli/8_0_R.jpg","j","response","j","true"
"","","","","","html-keyboard-response","133","2.0.0","230599","purc2c07up1","null","<p style=""border: 5px solid green;"">Correct!</p>","null","","",""
"","","","","","html-keyboard-response","134","2.0.0","231604","purc2c07up1","null","<div style=""font-size: 75px;"">+</div>","null","","",""
"","","","","","image-keyboard-response","135","2.0.0","233781","purc2c07up1","2175","stimuli/37_0.jpg","f","response","f","true"
"","","","","","html-keyboard-response","136","2.0.0","234284","purc2c07up1","null","<p style=""border: 5px solid green;"">Correct!</p>","null","","",""
"","","","","","html-keyboard-response","137","2.0.0","235291","purc2c07up1","null","<div style=""font-size: 75px;"">+</div>","null","","",""
"","","","","","image-keyboard-response","138","2.0.0","236782","purc2c07up1","1488","stimuli/23_50.jpg","f","response","f","true"
"","","","","","html-keyboard-response","139","2.0.0","237286","purc2c07up1","null","<p style=""border: 5px solid green;"">Correct!</p>","null","","",""
"","","","","","html-keyboard-response","140","2.0.0","238288","purc2c07up1","null","<div style=""font-size: 75px;"">+</div>","null","","",""
"","","","","","image-keyboard-response","141","2.0.0","240048","purc2c07up1","1757","stimuli/22_0.jpg","f","response","f","true"
"","","","","","html-keyboard-response","142","2.0.0","240553","purc2c07up1","null","<p style=""border: 5px solid green;"">Correct!</p>","null","","",""
"","","","","","html-keyboard-response","143","2.0.0","241559","purc2c07up1","null","<div style=""font-size: 75px;"">+</div>","null","","",""
"","","","","","image-keyboard-response","144","2.0.0","243675","purc2c07up1","2114","stimuli/6_100_R.jpg","j","response","j","true"
"","","","","","html-keyboard-response","145","2.0.0","244177","purc2c07up1","null","<p style=""border: 5px solid green;"">Correct!</p>","null","","",""
"","","","","","html-keyboard-response","146","2.0.0","245182","purc2c07up1","null","<div style=""font-size: 75px;"">+</div>","null","","",""
"","","","","","image-keyboard-response","147","2.0.0","246839","purc2c07up1","1654","stimuli/32_50_R.jpg","j","response","j","true"
"","","","","","html-keyboard-response","148","2.0.0","247343","purc2c07up1","null","<p style=""border: 5px solid green;"">Correct!</p>","null","","",""
"","","","","","html-keyboard-response","149","2.0.0","277350","purc2c07up1","null","<p> Take a break! Experiment continues in 30 seconds . </p>","null","","",""
"","","","","","html-keyboard-response","150","2.0.0","278357","purc2c07up1","null","<div style=""font-size: 75px;"">+</div>","null","","",""
"","","","","","image-keyboard-response","151","2.0.0","282084","purc2c07up1","3723","stimuli/24_100.jpg","j","response","f","false"
"","","","","","html-keyboard-response","152","2.0.0","282587","purc2c07up1","null","<p style=""border: 5px solid red;"">Incorrect.</p>","null","","",""
"","","","","","html-keyboard-response","153","2.0.0","283592","purc2c07up1","null","<div style=""font-size: 75px;"">+</div>","null","","",""
"","","","","","image-keyboard-response","154","2.0.0","286243","purc2c07up1","2648","stimuli/36_100_R.jpg","j","response","j","true"
"","","","","","html-keyboard-response","155","2.0.0","286747","purc2c07up1","null","<p style=""border: 5px solid green;"">Correct!</p>","null","","",""
"","","","","","html-keyboard-response","156","2.0.0","287753","purc2c07up1","null","<div style=""font-size: 75px;"">+</div>","null","","",""
"","","","","","image-keyboard-response","157","2.0.0","288760","purc2c07up1","1004","stimuli/20_0.jpg","f","response","f","true"
"","","","","","html-keyboard-response","158","2.0.0","289263","purc2c07up1","null","<p style=""border: 5px solid green;"">Correct!</p>","null","","",""
"","","","","","html-keyboard-response","159","2.0.0","290266","purc2c07up1","null","<div style=""font-size: 75px;"">+</div>","null","","",""
"","","","","","image-keyboard-response","160","2.0.0","291722","purc2c07up1","1453","stimuli/1_50.jpg","f","response","f","true"
"","","","","","html-keyboard-response","161","2.0.0","292226","purc2c07up1","null","<p style=""border: 5px solid green;"">Correct!</p>","null","","",""
"","","","","","html-keyboard-response","162","2.0.0","293233","purc2c07up1","null","<div style=""font-size: 75px;"">+</div>","null","","",""
"","","","","","image-keyboard-response","163","2.0.0","295980","purc2c07up1","2746","stimuli/36_50.jpg","j","response","f","false"
"","","","","","html-keyboard-response","164","2.0.0","296483","purc2c07up1","null","<p style=""border: 5px solid red;"">Incorrect.</p>","null","","",""
"","","","","","html-keyboard-response","165","2.0.0","297491","purc2c07up1","null","<div style=""font-size: 75px;"">+</div>","null","","",""
"","","","","","image-keyboard-response","166","2.0.0","300735","purc2c07up1","3241","stimuli/11_150_R.jpg","j","response","j","true"
"","","","","","html-keyboard-response","167","2.0.0","301241","purc2c07up1","null","<p style=""border: 5px solid green;"">Correct!</p>","null","","",""
"","","","","","html-keyboard-response","168","2.0.0","302249","purc2c07up1","null","<div style=""font-size: 75px;"">+</div>","null","","",""
"","","","","","image-keyboard-response","169","2.0.0","304276","purc2c07up1","2024","stimuli/46_0_R.jpg","f","response","j","false"
"","","","","","html-keyboard-response","170","2.0.0","304779","purc2c07up1","null","<p style=""border: 5px solid red;"">Incorrect.</p>","null","","",""
"","","","","","html-keyboard-response","171","2.0.0","305781","purc2c07up1","null","<div style=""font-size: 75px;"">+</div>","null","","",""
"","","","","","image-keyboard-response","172","2.0.0","310164","purc2c07up1","4380","stimuli/17_100_R.jpg","j","response","j","true"
"","","","","","html-keyboard-response","173","2.0.0","310666","purc2c07up1","null","<p style=""border: 5px solid green;"">Correct!</p>","null","","",""
"","","","","","html-keyboard-response","174","2.0.0","311674","purc2c07up1","null","<div style=""font-size: 75px;"">+</div>","null","","",""
"","","","","","image-keyboard-response","175","2.0.0","313119","purc2c07up1","1443","stimuli/9_150_R.jpg","j","response","j","true"
"","","","","","html-keyboard-response","176","2.0.0","313623","purc2c07up1","null","<p style=""border: 5px solid green;"">Correct!</p>","null","","",""
"","","","","","html-keyboard-response","177","2.0.0","314630","purc2c07up1","null","<div style=""font-size: 75px;"">+</div>","null","","",""
"","","","","","image-keyboard-response","178","2.0.0","316475","purc2c07up1","1842","stimuli/41_150.jpg","j","response","f","false"
"","","","","","html-keyboard-response","179","2.0.0","316979","purc2c07up1","null","<p style=""border: 5px solid red;"">Incorrect.</p>","null","","",""
"","","","","","html-keyboard-response","180","2.0.0","317987","purc2c07up1","null","<div style=""font-size: 75px;"">+</div>","null","","",""
"","","","","","image-keyboard-response","181","2.0.0","320721","purc2c07up1","2731","stimuli/16_150.jpg","f","response","f","true"
"","","","","","html-keyboard-response","182","2.0.0","321225","purc2c07up1","null","<p style=""border: 5px solid green;"">Correct!</p>","null","","",""
"","","","","","html-keyboard-response","183","2.0.0","322236","purc2c07up1","null","<div style=""font-size: 75px;"">+</div>","null","","",""
"","","","","","image-keyboard-response","184","2.0.0","323295","purc2c07up1","1056","stimuli/30_0.jpg","f","response","f","true"
"","","","","","html-keyboard-response","185","2.0.0","323798","purc2c07up1","null","<p style=""border: 5px solid green;"">Correct!</p>","null","","",""
"","","","","","html-keyboard-response","186","2.0.0","324805","purc2c07up1","null","<div style=""font-size: 75px;"">+</div>","null","","",""
"","","","","","image-keyboard-response","187","2.0.0","327364","purc2c07up1","2556","stimuli/34_100.jpg","f","response","f","true"
"","","","","","html-keyboard-response","188","2.0.0","327867","purc2c07up1","null","<p style=""border: 5px solid green;"">Correct!</p>","null","","",""
"","","","","","html-keyboard-response","189","2.0.0","328871","purc2c07up1","null","<div style=""font-size: 75px;"">+</div>","null","","",""
"","","","","","image-keyboard-response","190","2.0.0","329863","purc2c07up1","990","stimuli/27_0.jpg","f","response","f","true"
"","","","","","html-keyboard-response","191","2.0.0","330367","purc2c07up1","null","<p style=""border: 5px solid green;"">Correct!</p>","null","","",""
"","","","","","html-keyboard-response","192","2.0.0","331372","purc2c07up1","null","<div style=""font-size: 75px;"">+</div>","null","","",""
"","","","","","image-keyboard-response","193","2.0.0","332820","purc2c07up1","1445","stimuli/47_50.jpg","f","response","f","true"
"","","","","","html-keyboard-response","194","2.0.0","333324","purc2c07up1","null","<p style=""border: 5px solid green;"">Correct!</p>","null","","",""
"","","","","","html-keyboard-response","195","2.0.0","334331","purc2c07up1","null","<div style=""font-size: 75px;"">+</div>","null","","",""
"","","","","","image-keyboard-response","196","2.0.0","336328","purc2c07up1","1994","stimuli/6_150_R.jpg","j","response","j","true"
"","","","","","html-keyboard-response","197","2.0.0","336831","purc2c07up1","null","<p style=""border: 5px solid green;"">Correct!</p>","null","","",""
"","","","","","html-keyboard-response","198","2.0.0","337838","purc2c07up1","null","<div style=""font-size: 75px;"">+</div>","null","","",""
"","","","","","image-keyboard-response","199","2.0.0","339534","purc2c07up1","1693","stimuli/8_100.jpg","f","response","f","true"
"","","","","","html-keyboard-response","200","2.0.0","340037","purc2c07up1","null","<p style=""border: 5px solid green;"">Correct!</p>","null","","",""
"","","","","","html-keyboard-response","201","2.0.0","341041","purc2c07up1","null","<div style=""font-size: 75px;"">+</div>","null","","",""
"","","","","","image-keyboard-response","202","2.0.0","342752","purc2c07up1","1709","stimuli/33_0_R.jpg","j","response","j","true"
"","","","","","html-keyboard-response","203","2.0.0","343255","purc2c07up1","null","<p style=""border: 5px solid green;"">Correct!</p>","null","","",""
"","","","","","html-keyboard-response","204","2.0.0","344260","purc2c07up1","null","<div style=""font-size: 75px;"">+</div>","null","","",""
"","","","","","image-keyboard-response","205","2.0.0","345356","purc2c07up1","1094","stimuli/35_0.jpg","f","response","f","true"
"","","","","","html-keyboard-response","206","2.0.0","345860","purc2c07up1","null","<p style=""border: 5px solid green;"">Correct!</p>","null","","",""
"","","","","","html-keyboard-response","207","2.0.0","346868","purc2c07up1","null","<div style=""font-size: 75px;"">+</div>","null","","",""
"","","","","","image-keyboard-response","208","2.0.0","347914","purc2c07up1","1044","stimuli/29_50_R.jpg","j","response","j","true"
"","","","","","html-keyboard-response","209","2.0.0","348416","purc2c07up1","null","<p style=""border: 5px solid green;"">Correct!</p>","null","","",""
"","","","","","html-keyboard-response","210","2.0.0","349422","purc2c07up1","null","<div style=""font-size: 75px;"">+</div>","null","","",""
"","","","","","image-keyboard-response","211","2.0.0","350266","purc2c07up1","841","stimuli/38_50_R.jpg","j","response","j","true"
"","","","","","html-keyboard-response","212","2.0.0","350769","purc2c07up1","null","<p style=""border: 5px solid green;"">Correct!</p>","null","","",""
"","","","","","html-keyboard-response","213","2.0.0","351776","purc2c07up1","null","<div style=""font-size: 75px;"">+</div>","null","","",""
"","","","","","image-keyboard-response","214","2.0.0","353760","purc2c07up1","1981","stimuli/30_100.jpg","f","response","f","true"
"","","","","","html-keyboard-response","215","2.0.0","354264","purc2c07up1","null","<p style=""border: 5px solid green;"">Correct!</p>","null","","",""
"","","","","","html-keyboard-response","216","2.0.0","355269","purc2c07up1","null","<div style=""font-size: 75px;"">+</div>","null","","",""
"","","","","","image-keyboard-response","217","2.0.0","356380","purc2c07up1","1109","stimuli/1_0_R.jpg","j","response","j","true"
"","","","","","html-keyboard-response","218","2.0.0","356882","purc2c07up1","null","<p style=""border: 5px solid green;"">Correct!</p>","null","","",""
"","","","","","html-keyboard-response","219","2.0.0","357884","purc2c07up1","null","<div style=""font-size: 75px;"">+</div>","null","","",""
"","","","","","image-keyboard-response","220","2.0.0","361020","purc2c07up1","3134","stimuli/8_100_R.jpg","j","response","j","true"
"","","","","","html-keyboard-response","221","2.0.0","361525","purc2c07up1","null","<p style=""border: 5px solid green;"">Correct!</p>","null","","",""
"","","","","","html-keyboard-response","222","2.0.0","362533","purc2c07up1","null","<div style=""font-size: 75px;"">+</div>","null","","",""
"","","","","","image-keyboard-response","223","2.0.0","363442","purc2c07up1","907","stimuli/13_0_R.jpg","j","response","j","true"
"","","","","","html-keyboard-response","224","2.0.0","363947","purc2c07up1","null","<p style=""border: 5px solid green;"">Correct!</p>","null","","",""
"","","","","","html-keyboard-response","225","2.0.0","364953","purc2c07up1","null","<div style=""font-size: 75px;"">+</div>","null","","",""
"","","","","","image-keyboard-response","226","2.0.0","367606","purc2c07up1","2651","stimuli/43_100.jpg","f","response","f","true"
"","","","","","html-keyboard-response","227","2.0.0","368109","purc2c07up1","null","<p style=""border: 5px solid green;"">Correct!</p>","null","","",""
"","","","","","html-keyboard-response","228","2.0.0","369115","purc2c07up1","null","<div style=""font-size: 75px;"">+</div>","null","","",""
"","","","","","image-keyboard-response","229","2.0.0","370516","purc2c07up1","1398","stimuli/30_150.jpg","f","response","f","true"
"","","","","","html-keyboard-response","230","2.0.0","371021","purc2c07up1","null","<p style=""border: 5px solid green;"">Correct!</p>","null","","",""
"","","","","","html-keyboard-response","231","2.0.0","372025","purc2c07up1","null","<div style=""font-size: 75px;"">+</div>","null","","",""
"","","","","","image-keyboard-response","232","2.0.0","373082","purc2c07up1","1054","stimuli/18_0_R.jpg","j","response","j","true"
"","","","","","html-keyboard-response","233","2.0.0","373587","purc2c07up1","null","<p style=""border: 5px solid green;"">Correct!</p>","null","","",""
"","","","","","html-keyboard-response","234","2.0.0","374594","purc2c07up1","null","<div style=""font-size: 75px;"">+</div>","null","","",""
"","","","","","image-keyboard-response","235","2.0.0","375330","purc2c07up1","733","stimuli/38_0.jpg","j","response","f","false"
"","","","","","html-keyboard-response","236","2.0.0","375834","purc2c07up1","null","<p style=""border: 5px solid red;"">Incorrect.</p>","null","","",""
"","","","","","html-keyboard-response","237","2.0.0","376840","purc2c07up1","null","<div style=""font-size: 75px;"">+</div>","null","","",""
"","","","","","image-keyboard-response","238","2.0.0","378671","purc2c07up1","1829","stimuli/15_100_R.jpg","j","response","j","true"
"","","","","","html-keyboard-response","239","2.0.0","379176","purc2c07up1","null","<p style=""border: 5px solid green;"">Correct!</p>","null","","",""
"","","","","","html-keyboard-response","240","2.0.0","380183","purc2c07up1","null","<div style=""font-size: 75px;"">+</div>","null","","",""
"","","","","","image-keyboard-response","241","2.0.0","381997","purc2c07up1","1812","stimuli/1_150.jpg","f","response","f","true"
"","","","","","html-keyboard-response","242","2.0.0","382501","purc2c07up1","null","<p style=""border: 5px solid green;"">Correct!</p>","null","","",""
"","","","","","html-keyboard-response","243","2.0.0","383508","purc2c07up1","null","<div style=""font-size: 75px;"">+</div>","null","","",""
"","","","","","image-keyboard-response","244","2.0.0","385297","purc2c07up1","1787","stimuli/44_150.jpg","f","response","f","true"
"","","","","","html-keyboard-response","245","2.0.0","385803","purc2c07up1","null","<p style=""border: 5px solid green;"">Correct!</p>","null","","",""
"","","","","","html-keyboard-response","246","2.0.0","386805","purc2c07up1","null","<div style=""font-size: 75px;"">+</div>","null","","",""
"","","","","","image-keyboard-response","247","2.0.0","388648","purc2c07up1","1840","stimuli/2_0_R.jpg","j","response","j","true"
"","","","","","html-keyboard-response","248","2.0.0","389153","purc2c07up1","null","<p style=""border: 5px solid green;"">Correct!</p>","null","","",""
"","","","","","html-keyboard-response","249","2.0.0","390156","purc2c07up1","null","<div style=""font-size: 75px;"">+</div>","null","","",""
"","","","","","image-keyboard-response","250","2.0.0","391422","purc2c07up1","1264","stimuli/1_150_R.jpg","f","response","j","false"
"","","","","","html-keyboard-response","251","2.0.0","391925","purc2c07up1","null","<p style=""border: 5px solid red;"">Incorrect.</p>","null","","",""
"","","","","","html-keyboard-response","252","2.0.0","392931","purc2c07up1","null","<div style=""font-size: 75px;"">+</div>","null","","",""
"","","","","","image-keyboard-response","253","2.0.0","397147","purc2c07up1","4213","stimuli/26_150.jpg","f","response","f","true"
"","","","","","html-keyboard-response","254","2.0.0","397649","purc2c07up1","null","<p style=""border: 5px solid green;"">Correct!</p>","null","","",""
"","","","","","html-keyboard-response","255","2.0.0","398657","purc2c07up1","null","<div style=""font-size: 75px;"">+</div>","null","","",""
"","","","","","image-keyboard-response","256","2.0.0","400554","purc2c07up1","1894","stimuli/41_150_R.jpg","j","response","j","true"
"","","","","","html-keyboard-response","257","2.0.0","401057","purc2c07up1","null","<p style=""border: 5px solid green;"">Correct!</p>","null","","",""
"","","","","","html-keyboard-response","258","2.0.0","402064","purc2c07up1","null","<div style=""font-size: 75px;"">+</div>","null","","",""
"","","","","","image-keyboard-response","259","2.0.0","404416","purc2c07up1","2351","stimuli/43_150.jpg","f","response","f","true"
"","","","","","html-keyboard-response","260","2.0.0","404919","purc2c07up1","null","<p style=""border: 5px solid green;"">Correct!</p>","null","","",""
"","","","","","html-keyboard-response","261","2.0.0","405923","purc2c07up1","null","<div style=""font-size: 75px;"">+</div>","null","","",""
"","","","","","image-keyboard-response","262","2.0.0","408268","purc2c07up1","2342","stimuli/32_150_R.jpg","j","response","j","true"
"","","","","","html-keyboard-response","263","2.0.0","408772","purc2c07up1","null","<p style=""border: 5px solid green;"">Correct!</p>","null","","",""
"","","","","","html-keyboard-response","264","2.0.0","409780","purc2c07up1","null","<div style=""font-size: 75px;"">+</div>","null","","",""
"","","","","","image-keyboard-response","265","2.0.0","411782","purc2c07up1","2000","stimuli/21_100.jpg","f","response","f","true"
"","","","","","html-keyboard-response","266","2.0.0","412288","purc2c07up1","null","<p style=""border: 5px solid green;"">Correct!</p>","null","","",""
"","","","","","html-keyboard-response","267","2.0.0","413296","purc2c07up1","null","<div style=""font-size: 75px;"">+</div>","null","","",""
"","","","","","image-keyboard-response","268","2.0.0","416783","purc2c07up1","3484","stimuli/30_150_R.jpg","j","response","j","true"
"","","","","","html-keyboard-response","269","2.0.0","417285","purc2c07up1","null","<p style=""border: 5px solid green;"">Correct!</p>","null","","",""
"","","","","","html-keyboard-response","270","2.0.0","418292","purc2c07up1","null","<div style=""font-size: 75px;"">+</div>","null","","",""
"","","","","","image-keyboard-response","271","2.0.0","419790","purc2c07up1","1495","stimuli/3_0_R.jpg","j","response","j","true"
"","","","","","html-keyboard-response","272","2.0.0","420293","purc2c07up1","null","<p style=""border: 5px solid green;"">Correct!</p>","null","","",""
"","","","","","html-keyboard-response","273","2.0.0","421299","purc2c07up1","null","<div style=""font-size: 75px;"">+</div>","null","","",""
"","","","","","image-keyboard-response","274","2.0.0","422922","purc2c07up1","1621","stimuli/26_100.jpg","f","response","f","true"
"","","","","","html-keyboard-response","275","2.0.0","423425","purc2c07up1","null","<p style=""border: 5px solid green;"">Correct!</p>","null","","",""
"","","","","","html-keyboard-response","276","2.0.0","424429","purc2c07up1","null","<div style=""font-size: 75px;"">+</div>","null","","",""
"","","","","","image-keyboard-response","277","2.0.0","425475","purc2c07up1","1044","stimuli/43_0.jpg","f","response","f","true"
"","","","","","html-keyboard-response","278","2.0.0","425976","purc2c07up1","null","<p style=""border: 5px solid green;"">Correct!</p>","null","","",""
"","","","","","html-keyboard-response","279","2.0.0","426981","purc2c07up1","null","<div style=""font-size: 75px;"">+</div>","null","","",""
"","","","","","image-keyboard-response","280","2.0.0","428706","purc2c07up1","1723","stimuli/36_50_R.jpg","j","response","j","true"
"","","","","","html-keyboard-response","281","2.0.0","429209","purc2c07up1","null","<p style=""border: 5px solid green;"">Correct!</p>","null","","",""
"","","","","","html-keyboard-response","282","2.0.0","430216","purc2c07up1","null","<div style=""font-size: 75px;"">+</div>","null","","",""
"","","","","","image-keyboard-response","283","2.0.0","431423","purc2c07up1","1205","stimuli/46_100.jpg","f","response","f","true"
"","","","","","html-keyboard-response","284","2.0.0","431926","purc2c07up1","null","<p style=""border: 5px solid green;"">Correct!</p>","null","","",""
"","","","","","html-keyboard-response","285","2.0.0","432932","purc2c07up1","null","<div style=""font-size: 75px;"">+</div>","null","","",""
"","","","","","image-keyboard-response","286","2.0.0","434154","purc2c07up1","1219","stimuli/46_50_R.jpg","j","response","j","true"
"","","","","","html-keyboard-response","287","2.0.0","434657","purc2c07up1","null","<p style=""border: 5px solid green;"">Correct!</p>","null","","",""
"","","","","","html-keyboard-response","288","2.0.0","435665","purc2c07up1","null","<div style=""font-size: 75px;"">+</div>","null","","",""
"","","","","","image-keyboard-response","289","2.0.0","438057","purc2c07up1","2389","stimuli/39_50.jpg","f","response","f","true"
"","","","","","html-keyboard-response","290","2.0.0","438559","purc2c07up1","null","<p style=""border: 5px solid green;"">Correct!</p>","null","","",""
"","","","","","html-keyboard-response","291","2.0.0","439567","purc2c07up1","null","<div style=""font-size: 75px;"">+</div>","null","","",""
"","","","","","image-keyboard-response","292","2.0.0","441266","purc2c07up1","1696","stimuli/12_50_R.jpg","j","response","j","true"
"","","","","","html-keyboard-response","293","2.0.0","441768","purc2c07up1","null","<p style=""border: 5px solid green;"">Correct!</p>","null","","",""
"","","","","","html-keyboard-response","294","2.0.0","443466","purc2c07up1","1696","<p>Thank you for participating!</p><p>Please press space to answer our survey.</p>"," ","","",""
"","","","","","survey-html-form","295","null","622944","purc2c07up1","179473","","{""response_1"":""Clear and lively"",""response_2"":""Moderately clear and lively"",""response_3"":""Moderately clear and lively"",""response_4"":""Perfectly clear and lively as real seeing"",""response_5"":""Clear and lively"",""response_6"":""Clear and lively"",""response_7"":""Dim and vague; flat"",""response_8"":""Moderately clear and lively"",""response_9"":""Perfectly clear and lively as real seeing"",""response_10"":""Moderately clear and lively"",""response_11"":""Moderately clear and lively"",""response_12"":""Clear and lively"",""response_13"":""Moderately clear and lively"",""response_14"":""Dim and vague; flat"",""response_15"":""Moderately clear and lively"",""response_16"":""Moderately clear and lively""}","","",""
"","","","","","survey-html-form","296","null","657654","purc2c07up1","34706","","{""age"":""20"",""gender"":""female"",""education"":""some-college"",""handedness"":""right"",""vision"":""corrected"",""technical_difficulties"":""no"",""knowledge_check"":""if we rotate items in our mind""}","","",""
