"success","timeout","failed_images","failed_audio","failed_video","trial_type","trial_index","plugin_version","time_elapsed","random_id","rt","stimulus","response","task","correct_response","correct"
"true","false","[]","[]","[]","preload","0","2.0.0","16707","pxfxcvaxbv7","","","","","",""
"true","","","","","fullscreen","1","2.0.0","19241","pxfxcvaxbv7","1526","","","","",""
"","","","","","html-keyboard-response","2","2.0.0","20045","pxfxcvaxbv7","803","Welcome to the experiment. Press any key to begin.","s","","",""
"","","","","","survey-text","3","2.0.0","21826","pxfxcvaxbv7","1779","","{""participant_id"":""leopard""}","","",""
"","","","","","html-keyboard-response","4","2.0.0","26328","pxfxcvaxbv7","4501","
        <p>Welcome to the experiment.</p>
        <p>In this task, you will see pairs of images.</p>
        <p>Your job is to determine whether the image on the right is a rotated version of the image on the left.</p>
        <p>Press the <strong>F</strong> key if the images are the same.</p>
        <p>Press the <strong>J</strong> key if the images are different.</p>
        <p>Press any key to begin.</p>
    ","f","","",""
"","","","","","html-keyboard-response","5","2.0.0","27333","pxfxcvaxbv7","null","<div style=""font-size: 75px;"">+</div>","null","","",""
"","","","","","image-keyboard-response","6","2.0.0","33933","pxfxcvaxbv7","6598","stimuli/17_0_R.jpg","f","response","j","false"
"","","","","","html-keyboard-response","7","2.0.0","34442","pxfxcvaxbv7","null","<p style=""border: 5px solid red;"">Incorrect.</p>","null","","",""
"","","","","","html-keyboard-response","8","2.0.0","35446","pxfxcvaxbv7","null","<div style=""font-size: 75px;"">+</div>","null","","",""
"","","","","","image-keyboard-response","9","2.0.0","41037","pxfxcvaxbv7","5591","stimuli/1_100_R.jpg","f","response","j","false"
"","","","","","html-keyboard-response","10","2.0.0","41540","pxfxcvaxbv7","null","<p style=""border: 5px solid red;"">Incorrect.</p>","null","","",""
"","","","","","html-keyboard-response","11","2.0.0","42543","pxfxcvaxbv7","null","<div style=""font-size: 75px;"">+</div>","null","","",""
"","","","","","image-keyboard-response","12","2.0.0","46568","pxfxcvaxbv7","4024","stimuli/30_100_R.jpg","j","response","j","true"
"","","","","","html-keyboard-response","13","2.0.0","47076","pxfxcvaxbv7","null","<p style=""border: 5px solid green;"">Correct!</p>","null","","",""
"","","","","","html-keyboard-response","14","2.0.0","48079","pxfxcvaxbv7","null","<div style=""font-size: 75px;"">+</div>","null","","",""
"","","","","","image-keyboard-response","15","2.0.0","51671","pxfxcvaxbv7","3591","stimuli/20_100.jpg","f","response","f","true"
"","","","","","html-keyboard-response","16","2.0.0","52172","pxfxcvaxbv7","null","<p style=""border: 5px solid green;"">Correct!</p>","null","","",""
"","","","","","html-keyboard-response","17","2.0.0","53175","pxfxcvaxbv7","null","<div style=""font-size: 75px;"">+</div>","null","","",""
"","","","","","image-keyboard-response","18","2.0.0","58684","pxfxcvaxbv7","5508","stimuli/11_0_R.jpg","j","response","j","true"
"","","","","","html-keyboard-response","19","2.0.0","59197","pxfxcvaxbv7","null","<p style=""border: 5px solid green;"">Correct!</p>","null","","",""
"","","","","","html-keyboard-response","20","2.0.0","60199","pxfxcvaxbv7","null","<div style=""font-size: 75px;"">+</div>","null","","",""
"","","","","","image-keyboard-response","21","2.0.0","64794","pxfxcvaxbv7","4594","stimuli/34_150.jpg","f","response","f","true"
"","","","","","html-keyboard-response","22","2.0.0","65297","pxfxcvaxbv7","null","<p style=""border: 5px solid green;"">Correct!</p>","null","","",""
"","","","","","html-keyboard-response","23","2.0.0","66301","pxfxcvaxbv7","null","<div style=""font-size: 75px;"">+</div>","null","","",""
"","","","","","image-keyboard-response","24","2.0.0","75408","pxfxcvaxbv7","9106","stimuli/48_0_R.jpg","j","response","j","true"
"","","","","","html-keyboard-response","25","2.0.0","75917","pxfxcvaxbv7","null","<p style=""border: 5px solid green;"">Correct!</p>","null","","",""
"","","","","","html-keyboard-response","26","2.0.0","76919","pxfxcvaxbv7","null","<div style=""font-size: 75px;"">+</div>","null","","",""
"","","","","","image-keyboard-response","27","2.0.0","78421","pxfxcvaxbv7","1501","stimuli/45_0.jpg","f","response","f","true"
"","","","","","html-keyboard-response","28","2.0.0","78927","pxfxcvaxbv7","null","<p style=""border: 5px solid green;"">Correct!</p>","null","","",""
"","","","","","html-keyboard-response","29","2.0.0","79941","pxfxcvaxbv7","null","<div style=""font-size: 75px;"">+</div>","null","","",""
"","","","","","image-keyboard-response","30","2.0.0","83404","pxfxcvaxbv7","3462","stimuli/26_0_R.jpg","j","response","j","true"
"","","","","","html-keyboard-response","31","2.0.0","83911","pxfxcvaxbv7","null","<p style=""border: 5px solid green;"">Correct!</p>","null","","",""
"","","","","","html-keyboard-response","32","2.0.0","84917","pxfxcvaxbv7","null","<div style=""font-size: 75px;"">+</div>","null","","",""
"","","","","","image-keyboard-response","33","2.0.0","86419","pxfxcvaxbv7","1501","stimuli/10_0.jpg","f","response","f","true"
"","","","","","html-keyboard-response","34","2.0.0","86923","pxfxcvaxbv7","null","<p style=""border: 5px solid green;"">Correct!</p>","null","","",""
"","","","","","html-keyboard-response","35","2.0.0","87929","pxfxcvaxbv7","null","<div style=""font-size: 75px;"">+</div>","null","","",""
"","","","","","image-keyboard-response","36","2.0.0","89880","pxfxcvaxbv7","1950","stimuli/20_50.jpg","f","response","f","true"
"","","","","","html-keyboard-response","37","2.0.0","90389","pxfxcvaxbv7","null","<p style=""border: 5px solid green;"">Correct!</p>","null","","",""
"","","","","","html-keyboard-response","38","2.0.0","91394","pxfxcvaxbv7","null","<div style=""font-size: 75px;"">+</div>","null","","",""
"","","","","","image-keyboard-response","39","2.0.0","93047","pxfxcvaxbv7","1652","stimuli/36_0.jpg","f","response","f","true"
"","","","","","html-keyboard-response","40","2.0.0","93552","pxfxcvaxbv7","null","<p style=""border: 5px solid green;"">Correct!</p>","null","","",""
"","","","","","html-keyboard-response","41","2.0.0","94555","pxfxcvaxbv7","null","<div style=""font-size: 75px;"">+</div>","null","","",""
"","","","","","image-keyboard-response","42","2.0.0","96720","pxfxcvaxbv7","2164","stimuli/6_150_R.jpg","j","response","j","true"
"","","","","","html-keyboard-response","43","2.0.0","97221","pxfxcvaxbv7","null","<p style=""border: 5px solid green;"">Correct!</p>","null","","",""
"","","","","","html-keyboard-response","44","2.0.0","98231","pxfxcvaxbv7","null","<div style=""font-size: 75px;"">+</div>","null","","",""
"","","","","","image-keyboard-response","45","2.0.0","101128","pxfxcvaxbv7","2897","stimuli/28_150.jpg","f","response","f","true"
"","","","","","html-keyboard-response","46","2.0.0","101629","pxfxcvaxbv7","null","<p style=""border: 5px solid green;"">Correct!</p>","null","","",""
"","","","","","html-keyboard-response","47","2.0.0","102632","pxfxcvaxbv7","null","<div style=""font-size: 75px;"">+</div>","null","","",""
"","","","","","image-keyboard-response","48","2.0.0","104574","pxfxcvaxbv7","1941","stimuli/3_0_R.jpg","f","response","j","false"
"","","","","","html-keyboard-response","49","2.0.0","105088","pxfxcvaxbv7","null","<p style=""border: 5px solid red;"">Incorrect.</p>","null","","",""
"","","","","","html-keyboard-response","50","2.0.0","106099","pxfxcvaxbv7","null","<div style=""font-size: 75px;"">+</div>","null","","",""
"","","","","","image-keyboard-response","51","2.0.0","108259","pxfxcvaxbv7","2159","stimuli/47_50.jpg","f","response","f","true"
"","","","","","html-keyboard-response","52","2.0.0","108762","pxfxcvaxbv7","null","<p style=""border: 5px solid green;"">Correct!</p>","null","","",""
"","","","","","html-keyboard-response","53","2.0.0","109767","pxfxcvaxbv7","null","<div style=""font-size: 75px;"">+</div>","null","","",""
"","","","","","image-keyboard-response","54","2.0.0","111307","pxfxcvaxbv7","1539","stimuli/19_150_R.jpg","j","response","j","true"
"","","","","","html-keyboard-response","55","2.0.0","111819","pxfxcvaxbv7","null","<p style=""border: 5px solid green;"">Correct!</p>","null","","",""
"","","","","","html-keyboard-response","56","2.0.0","112823","pxfxcvaxbv7","null","<div style=""font-size: 75px;"">+</div>","null","","",""
"","","","","","image-keyboard-response","57","2.0.0","114957","pxfxcvaxbv7","2133","stimuli/27_0_R.jpg","j","response","j","true"
"","","","","","html-keyboard-response","58","2.0.0","115468","pxfxcvaxbv7","null","<p style=""border: 5px solid green;"">Correct!</p>","null","","",""
"","","","","","html-keyboard-response","59","2.0.0","116478","pxfxcvaxbv7","null","<div style=""font-size: 75px;"">+</div>","null","","",""
"","","","","","image-keyboard-response","60","2.0.0","117362","pxfxcvaxbv7","883","stimuli/20_0.jpg","f","response","f","true"
"","","","","","html-keyboard-response","61","2.0.0","117866","pxfxcvaxbv7","null","<p style=""border: 5px solid green;"">Correct!</p>","null","","",""
"","","","","","html-keyboard-response","62","2.0.0","118870","pxfxcvaxbv7","null","<div style=""font-size: 75px;"">+</div>","null","","",""
"","","","","","image-keyboard-response","63","2.0.0","121136","pxfxcvaxbv7","2265","stimuli/45_100.jpg","f","response","f","true"
"","","","","","html-keyboard-response","64","2.0.0","121648","pxfxcvaxbv7","null","<p style=""border: 5px solid green;"">Correct!</p>","null","","",""
"","","","","","html-keyboard-response","65","2.0.0","122651","pxfxcvaxbv7","null","<div style=""font-size: 75px;"">+</div>","null","","",""
"","","","","","image-keyboard-response","66","2.0.0","127571","pxfxcvaxbv7","4920","stimuli/7_150.jpg","j","response","f","false"
"","","","","","html-keyboard-response","67","2.0.0","128071","pxfxcvaxbv7","null","<p style=""border: 5px solid red;"">Incorrect.</p>","null","","",""
"","","","","","html-keyboard-response","68","2.0.0","129077","pxfxcvaxbv7","null","<div style=""font-size: 75px;"">+</div>","null","","",""
"","","","","","image-keyboard-response","69","2.0.0","133449","pxfxcvaxbv7","4371","stimuli/48_100_R.jpg","j","response","j","true"
"","","","","","html-keyboard-response","70","2.0.0","133960","pxfxcvaxbv7","null","<p style=""border: 5px solid green;"">Correct!</p>","null","","",""
"","","","","","html-keyboard-response","71","2.0.0","134963","pxfxcvaxbv7","null","<div style=""font-size: 75px;"">+</div>","null","","",""
"","","","","","image-keyboard-response","72","2.0.0","136697","pxfxcvaxbv7","1733","stimuli/12_100.jpg","f","response","f","true"
"","","","","","html-keyboard-response","73","2.0.0","137204","pxfxcvaxbv7","null","<p style=""border: 5px solid green;"">Correct!</p>","null","","",""
"","","","","","html-keyboard-response","74","2.0.0","138206","pxfxcvaxbv7","null","<div style=""font-size: 75px;"">+</div>","null","","",""
"","","","","","image-keyboard-response","75","2.0.0","145642","pxfxcvaxbv7","7436","stimuli/36_100_R.jpg","j","response","j","true"
"","","","","","html-keyboard-response","76","2.0.0","146146","pxfxcvaxbv7","null","<p style=""border: 5px solid green;"">Correct!</p>","null","","",""
"","","","","","html-keyboard-response","77","2.0.0","147162","pxfxcvaxbv7","null","<div style=""font-size: 75px;"">+</div>","null","","",""
"","","","","","image-keyboard-response","78","2.0.0","149805","pxfxcvaxbv7","2642","stimuli/14_150_R.jpg","j","response","j","true"
"","","","","","html-keyboard-response","79","2.0.0","150309","pxfxcvaxbv7","null","<p style=""border: 5px solid green;"">Correct!</p>","null","","",""
"","","","","","html-keyboard-response","80","2.0.0","151314","pxfxcvaxbv7","null","<div style=""font-size: 75px;"">+</div>","null","","",""
"","","","","","image-keyboard-response","81","2.0.0","156218","pxfxcvaxbv7","4904","stimuli/40_100.jpg","j","response","f","false"
"","","","","","html-keyboard-response","82","2.0.0","156724","pxfxcvaxbv7","null","<p style=""border: 5px solid red;"">Incorrect.</p>","null","","",""
"","","","","","html-keyboard-response","83","2.0.0","157736","pxfxcvaxbv7","null","<div style=""font-size: 75px;"">+</div>","null","","",""
"","","","","","image-keyboard-response","84","2.0.0","161762","pxfxcvaxbv7","4025","stimuli/26_50_R.jpg","f","response","j","false"
"","","","","","html-keyboard-response","85","2.0.0","162270","pxfxcvaxbv7","null","<p style=""border: 5px solid red;"">Incorrect.</p>","null","","",""
"","","","","","html-keyboard-response","86","2.0.0","163286","pxfxcvaxbv7","null","<div style=""font-size: 75px;"">+</div>","null","","",""
"","","","","","image-keyboard-response","87","2.0.0","165676","pxfxcvaxbv7","2389","stimuli/24_100.jpg","j","response","f","false"
"","","","","","html-keyboard-response","88","2.0.0","166190","pxfxcvaxbv7","null","<p style=""border: 5px solid red;"">Incorrect.</p>","null","","",""
"","","","","","html-keyboard-response","89","2.0.0","167193","pxfxcvaxbv7","null","<div style=""font-size: 75px;"">+</div>","null","","",""
"","","","","","image-keyboard-response","90","2.0.0","169361","pxfxcvaxbv7","2167","stimuli/9_0_R.jpg","j","response","j","true"
"","","","","","html-keyboard-response","91","2.0.0","169865","pxfxcvaxbv7","null","<p style=""border: 5px solid green;"">Correct!</p>","null","","",""
"","","","","","html-keyboard-response","92","2.0.0","170872","pxfxcvaxbv7","null","<div style=""font-size: 75px;"">+</div>","null","","",""
"","","","","","image-keyboard-response","93","2.0.0","174956","pxfxcvaxbv7","4084","stimuli/5_50_R.jpg","j","response","j","true"
"","","","","","html-keyboard-response","94","2.0.0","175471","pxfxcvaxbv7","null","<p style=""border: 5px solid green;"">Correct!</p>","null","","",""
"","","","","","html-keyboard-response","95","2.0.0","176473","pxfxcvaxbv7","null","<div style=""font-size: 75px;"">+</div>","null","","",""
"","","","","","image-keyboard-response","96","2.0.0","177854","pxfxcvaxbv7","1380","stimuli/12_50.jpg","f","response","f","true"
"","","","","","html-keyboard-response","97","2.0.0","178367","pxfxcvaxbv7","null","<p style=""border: 5px solid green;"">Correct!</p>","null","","",""
"","","","","","html-keyboard-response","98","2.0.0","179370","pxfxcvaxbv7","null","<div style=""font-size: 75px;"">+</div>","null","","",""
"","","","","","image-keyboard-response","99","2.0.0","187901","pxfxcvaxbv7","8530","stimuli/17_150_R.jpg","j","response","j","true"
"","","","","","html-keyboard-response","100","2.0.0","188407","pxfxcvaxbv7","null","<p style=""border: 5px solid green;"">Correct!</p>","null","","",""
"","","","","","html-keyboard-response","101","2.0.0","189409","pxfxcvaxbv7","null","<div style=""font-size: 75px;"">+</div>","null","","",""
"","","","","","image-keyboard-response","102","2.0.0","191133","pxfxcvaxbv7","1723","stimuli/38_50.jpg","f","response","f","true"
"","","","","","html-keyboard-response","103","2.0.0","191647","pxfxcvaxbv7","null","<p style=""border: 5px solid green;"">Correct!</p>","null","","",""
"","","","","","html-keyboard-response","104","2.0.0","192652","pxfxcvaxbv7","null","<div style=""font-size: 75px;"">+</div>","null","","",""
"","","","","","image-keyboard-response","105","2.0.0","195780","pxfxcvaxbv7","3127","stimuli/42_100.jpg","f","response","f","true"
"","","","","","html-keyboard-response","106","2.0.0","196291","pxfxcvaxbv7","null","<p style=""border: 5px solid green;"">Correct!</p>","null","","",""
"","","","","","html-keyboard-response","107","2.0.0","197307","pxfxcvaxbv7","null","<div style=""font-size: 75px;"">+</div>","null","","",""
"","","","","","image-keyboard-response","108","2.0.0","198855","pxfxcvaxbv7","1547","stimuli/46_50.jpg","f","response","f","true"
"","","","","","html-keyboard-response","109","2.0.0","199364","pxfxcvaxbv7","null","<p style=""border: 5px solid green;"">Correct!</p>","null","","",""
"","","","","","html-keyboard-response","110","2.0.0","200378","pxfxcvaxbv7","null","<div style=""font-size: 75px;"">+</div>","null","","",""
"","","","","","image-keyboard-response","111","2.0.0","202371","pxfxcvaxbv7","1992","stimuli/47_150.jpg","f","response","f","true"
"","","","","","html-keyboard-response","112","2.0.0","202880","pxfxcvaxbv7","null","<p style=""border: 5px solid green;"">Correct!</p>","null","","",""
"","","","","","html-keyboard-response","113","2.0.0","203882","pxfxcvaxbv7","null","<div style=""font-size: 75px;"">+</div>","null","","",""
"","","","","","image-keyboard-response","114","2.0.0","207981","pxfxcvaxbv7","4098","stimuli/28_50_R.jpg","j","response","j","true"
"","","","","","html-keyboard-response","115","2.0.0","208496","pxfxcvaxbv7","null","<p style=""border: 5px solid green;"">Correct!</p>","null","","",""
"","","","","","html-keyboard-response","116","2.0.0","209499","pxfxcvaxbv7","null","<div style=""font-size: 75px;"">+</div>","null","","",""
"","","","","","image-keyboard-response","117","2.0.0","211263","pxfxcvaxbv7","1763","stimuli/21_100.jpg","f","response","f","true"
"","","","","","html-keyboard-response","118","2.0.0","211766","pxfxcvaxbv7","null","<p style=""border: 5px solid green;"">Correct!</p>","null","","",""
"","","","","","html-keyboard-response","119","2.0.0","212780","pxfxcvaxbv7","null","<div style=""font-size: 75px;"">+</div>","null","","",""
"","","","","","image-keyboard-response","120","2.0.0","213700","pxfxcvaxbv7","919","stimuli/1_0.jpg","f","response","f","true"
"","","","","","html-keyboard-response","121","2.0.0","214201","pxfxcvaxbv7","null","<p style=""border: 5px solid green;"">Correct!</p>","null","","",""
"","","","","","html-keyboard-response","122","2.0.0","215202","pxfxcvaxbv7","null","<div style=""font-size: 75px;"">+</div>","null","","",""
"","","","","","image-keyboard-response","123","2.0.0","217920","pxfxcvaxbv7","2717","stimuli/2_100.jpg","f","response","f","true"
"","","","","","html-keyboard-response","124","2.0.0","218429","pxfxcvaxbv7","null","<p style=""border: 5px solid green;"">Correct!</p>","null","","",""
"","","","","","html-keyboard-response","125","2.0.0","219441","pxfxcvaxbv7","null","<div style=""font-size: 75px;"">+</div>","null","","",""
"","","","","","image-keyboard-response","126","2.0.0","221928","pxfxcvaxbv7","2486","stimuli/35_50.jpg","f","response","f","true"
"","","","","","html-keyboard-response","127","2.0.0","222440","pxfxcvaxbv7","null","<p style=""border: 5px solid green;"">Correct!</p>","null","","",""
"","","","","","html-keyboard-response","128","2.0.0","223445","pxfxcvaxbv7","null","<div style=""font-size: 75px;"">+</div>","null","","",""
"","","","","","image-keyboard-response","129","2.0.0","225052","pxfxcvaxbv7","1606","stimuli/42_100_R.jpg","j","response","j","true"
"","","","","","html-keyboard-response","130","2.0.0","225565","pxfxcvaxbv7","null","<p style=""border: 5px solid green;"">Correct!</p>","null","","",""
"","","","","","html-keyboard-response","131","2.0.0","226566","pxfxcvaxbv7","null","<div style=""font-size: 75px;"">+</div>","null","","",""
"","","","","","image-keyboard-response","132","2.0.0","229849","pxfxcvaxbv7","3282","stimuli/48_100.jpg","f","response","f","true"
"","","","","","html-keyboard-response","133","2.0.0","230350","pxfxcvaxbv7","null","<p style=""border: 5px solid green;"">Correct!</p>","null","","",""
"","","","","","html-keyboard-response","134","2.0.0","231355","pxfxcvaxbv7","null","<div style=""font-size: 75px;"">+</div>","null","","",""
"","","","","","image-keyboard-response","135","2.0.0","235421","pxfxcvaxbv7","4065","stimuli/32_50_R.jpg","j","response","j","true"
"","","","","","html-keyboard-response","136","2.0.0","235933","pxfxcvaxbv7","null","<p style=""border: 5px solid green;"">Correct!</p>","null","","",""
"","","","","","html-keyboard-response","137","2.0.0","236938","pxfxcvaxbv7","null","<div style=""font-size: 75px;"">+</div>","null","","",""
"","","","","","image-keyboard-response","138","2.0.0","238232","pxfxcvaxbv7","1293","stimuli/46_0.jpg","f","response","f","true"
"","","","","","html-keyboard-response","139","2.0.0","238745","pxfxcvaxbv7","null","<p style=""border: 5px solid green;"">Correct!</p>","null","","",""
"","","","","","html-keyboard-response","140","2.0.0","239748","pxfxcvaxbv7","null","<div style=""font-size: 75px;"">+</div>","null","","",""
"","","","","","image-keyboard-response","141","2.0.0","243557","pxfxcvaxbv7","3809","stimuli/29_50_R.jpg","j","response","j","true"
"","","","","","html-keyboard-response","142","2.0.0","244061","pxfxcvaxbv7","null","<p style=""border: 5px solid green;"">Correct!</p>","null","","",""
"","","","","","html-keyboard-response","143","2.0.0","245067","pxfxcvaxbv7","null","<div style=""font-size: 75px;"">+</div>","null","","",""
"","","","","","image-keyboard-response","144","2.0.0","245799","pxfxcvaxbv7","731","stimuli/42_0.jpg","f","response","f","true"
"","","","","","html-keyboard-response","145","2.0.0","246303","pxfxcvaxbv7","null","<p style=""border: 5px solid green;"">Correct!</p>","null","","",""
"","","","","","html-keyboard-response","146","2.0.0","247316","pxfxcvaxbv7","null","<div style=""font-size: 75px;"">+</div>","null","","",""
"","","","","","image-keyboard-response","147","2.0.0","248553","pxfxcvaxbv7","1237","stimuli/39_50_R.jpg","j","response","j","true"
"","","","","","html-keyboard-response","148","2.0.0","249060","pxfxcvaxbv7","null","<p style=""border: 5px solid green;"">Correct!</p>","null","","",""
"","","","","","html-keyboard-response","149","2.0.0","279067","pxfxcvaxbv7","null","<p> Take a break! Experiment continues in 30 seconds . </p>","null","","",""
"","","","","","html-keyboard-response","150","2.0.0","280071","pxfxcvaxbv7","null","<div style=""font-size: 75px;"">+</div>","null","","",""
"","","","","","image-keyboard-response","151","2.0.0","282400","pxfxcvaxbv7","2328","stimuli/20_150_R.jpg","j","response","j","true"
"","","","","","html-keyboard-response","152","2.0.0","282913","pxfxcvaxbv7","null","<p style=""border: 5px solid green;"">Correct!</p>","null","","",""
"","","","","","html-keyboard-response","153","2.0.0","283918","pxfxcvaxbv7","null","<div style=""font-size: 75px;"">+</div>","null","","",""
"","","","","","image-keyboard-response","154","2.0.0","285302","pxfxcvaxbv7","1383","stimuli/44_100.jpg","f","response","f","true"
"","","","","","html-keyboard-response","155","2.0.0","285816","pxfxcvaxbv7","null","<p style=""border: 5px solid green;"">Correct!</p>","null","","",""
"","","","","","html-keyboard-response","156","2.0.0","286831","pxfxcvaxbv7","null","<div style=""font-size: 75px;"">+</div>","null","","",""
"","","","","","image-keyboard-response","157","2.0.0","289152","pxfxcvaxbv7","2320","stimuli/41_150.jpg","f","response","f","true"
"","","","","","html-keyboard-response","158","2.0.0","289664","pxfxcvaxbv7","null","<p style=""border: 5px solid green;"">Correct!</p>","null","","",""
"","","","","","html-keyboard-response","159","2.0.0","290667","pxfxcvaxbv7","null","<div style=""font-size: 75px;"">+</div>","null","","",""
"","","","","","image-keyboard-response","160","2.0.0","293345","pxfxcvaxbv7","2677","stimuli/41_50_R.jpg","j","response","j","true"
"","","","","","html-keyboard-response","161","2.0.0","293852","pxfxcvaxbv7","null","<p style=""border: 5px solid green;"">Correct!</p>","null","","",""
"","","","","","html-keyboard-response","162","2.0.0","294856","pxfxcvaxbv7","null","<div style=""font-size: 75px;"">+</div>","null","","",""
"","","","","","image-keyboard-response","163","2.0.0","295878","pxfxcvaxbv7","1021","stimuli/33_0.jpg","f","response","f","true"
"","","","","","html-keyboard-response","164","2.0.0","296384","pxfxcvaxbv7","null","<p style=""border: 5px solid green;"">Correct!</p>","null","","",""
"","","","","","html-keyboard-response","165","2.0.0","297392","pxfxcvaxbv7","null","<div style=""font-size: 75px;"">+</div>","null","","",""
"","","","","","image-keyboard-response","166","2.0.0","298781","pxfxcvaxbv7","1388","stimuli/44_150.jpg","f","response","f","true"
"","","","","","html-keyboard-response","167","2.0.0","299293","pxfxcvaxbv7","null","<p style=""border: 5px solid green;"">Correct!</p>","null","","",""
"","","","","","html-keyboard-response","168","2.0.0","300296","pxfxcvaxbv7","null","<div style=""font-size: 75px;"">+</div>","null","","",""
"","","","","","image-keyboard-response","169","2.0.0","302817","pxfxcvaxbv7","2521","stimuli/14_50.jpg","f","response","f","true"
"","","","","","html-keyboard-response","170","2.0.0","303321","pxfxcvaxbv7","null","<p style=""border: 5px solid green;"">Correct!</p>","null","","",""
"","","","","","html-keyboard-response","171","2.0.0","304325","pxfxcvaxbv7","null","<div style=""font-size: 75px;"">+</div>","null","","",""
"","","","","","image-keyboard-response","172","2.0.0","306348","pxfxcvaxbv7","2022","stimuli/36_150_R.jpg","j","response","j","true"
"","","","","","html-keyboard-response","173","2.0.0","306849","pxfxcvaxbv7","null","<p style=""border: 5px solid green;"">Correct!</p>","null","","",""
"","","","","","html-keyboard-response","174","2.0.0","307850","pxfxcvaxbv7","null","<div style=""font-size: 75px;"">+</div>","null","","",""
"","","","","","image-keyboard-response","175","2.0.0","309416","pxfxcvaxbv7","1565","stimuli/19_50_R.jpg","j","response","j","true"
"","","","","","html-keyboard-response","176","2.0.0","309922","pxfxcvaxbv7","null","<p style=""border: 5px solid green;"">Correct!</p>","null","","",""
"","","","","","html-keyboard-response","177","2.0.0","310939","pxfxcvaxbv7","null","<div style=""font-size: 75px;"">+</div>","null","","",""
"","","","","","image-keyboard-response","178","2.0.0","314868","pxfxcvaxbv7","3928","stimuli/17_100.jpg","j","response","f","false"
"","","","","","html-keyboard-response","179","2.0.0","315382","pxfxcvaxbv7","null","<p style=""border: 5px solid red;"">Incorrect.</p>","null","","",""
"","","","","","html-keyboard-response","180","2.0.0","316388","pxfxcvaxbv7","null","<div style=""font-size: 75px;"">+</div>","null","","",""
"","","","","","image-keyboard-response","181","2.0.0","317637","pxfxcvaxbv7","1248","stimuli/28_0.jpg","f","response","f","true"
"","","","","","html-keyboard-response","182","2.0.0","318147","pxfxcvaxbv7","null","<p style=""border: 5px solid green;"">Correct!</p>","null","","",""
"","","","","","html-keyboard-response","183","2.0.0","319149","pxfxcvaxbv7","null","<div style=""font-size: 75px;"">+</div>","null","","",""
"","","","","","image-keyboard-response","184","2.0.0","321878","pxfxcvaxbv7","2728","stimuli/25_0_R.jpg","j","response","j","true"
"","","","","","html-keyboard-response","185","2.0.0","322389","pxfxcvaxbv7","null","<p style=""border: 5px solid green;"">Correct!</p>","null","","",""
"","","","","","html-keyboard-response","186","2.0.0","323392","pxfxcvaxbv7","null","<div style=""font-size: 75px;"">+</div>","null","","",""
"","","","","","image-keyboard-response","187","2.0.0","325427","pxfxcvaxbv7","2034","stimuli/18_100_R.jpg","j","response","j","true"
"","","","","","html-keyboard-response","188","2.0.0","325938","pxfxcvaxbv7","null","<p style=""border: 5px solid green;"">Correct!</p>","null","","",""
"","","","","","html-keyboard-response","189","2.0.0","326940","pxfxcvaxbv7","null","<div style=""font-size: 75px;"">+</div>","null","","",""
"","","","","","image-keyboard-response","190","2.0.0","327812","pxfxcvaxbv7","871","stimuli/13_50.jpg","f","response","f","true"
"","","","","","html-keyboard-response","191","2.0.0","328325","pxfxcvaxbv7","null","<p style=""border: 5px solid green;"">Correct!</p>","null","","",""
"","","","","","html-keyboard-response","192","2.0.0","329331","pxfxcvaxbv7","null","<div style=""font-size: 75px;"">+</div>","null","","",""
"","","","","","image-keyboard-response","193","2.0.0","330987","pxfxcvaxbv7","1656","stimuli/7_0_R.jpg","j","response","j","true"
"","","","","","html-keyboard-response","194","2.0.0","331496","pxfxcvaxbv7","null","<p style=""border: 5px solid green;"">Correct!</p>","null","","",""
"","","","","","html-keyboard-response","195","2.0.0","332499","pxfxcvaxbv7","null","<div style=""font-size: 75px;"">+</div>","null","","",""
"","","","","","image-keyboard-response","196","2.0.0","338040","pxfxcvaxbv7","5540","stimuli/35_150.jpg","j","response","f","false"
"","","","","","html-keyboard-response","197","2.0.0","338542","pxfxcvaxbv7","null","<p style=""border: 5px solid red;"">Incorrect.</p>","null","","",""
"","","","","","html-keyboard-response","198","2.0.0","339546","pxfxcvaxbv7","null","<div style=""font-size: 75px;"">+</div>","null","","",""
"","","","","","image-keyboard-response","199","2.0.0","343027","pxfxcvaxbv7","3480","stimuli/25_50_R.jpg","j","response","j","true"
"","","","","","html-keyboard-response","200","2.0.0","343537","pxfxcvaxbv7","null","<p style=""border: 5px solid green;"">Correct!</p>","null","","",""
"","","","","","html-keyboard-response","201","2.0.0","344550","pxfxcvaxbv7","null","<div style=""font-size: 75px;"">+</div>","null","","",""
"","","","","","image-keyboard-response","202","2.0.0","349042","pxfxcvaxbv7","4491","stimuli/43_150.jpg","f","response","f","true"
"","","","","","html-keyboard-response","203","2.0.0","349556","pxfxcvaxbv7","null","<p style=""border: 5px solid green;"">Correct!</p>","null","","",""
"","","","","","html-keyboard-response","204","2.0.0","350559","pxfxcvaxbv7","null","<div style=""font-size: 75px;"">+</div>","null","","",""
"","","","","","image-keyboard-response","205","2.0.0","353946","pxfxcvaxbv7","3386","stimuli/46_150_R.jpg","f","response","j","false"
"","","","","","html-keyboard-response","206","2.0.0","354456","pxfxcvaxbv7","null","<p style=""border: 5px solid red;"">Incorrect.</p>","null","","",""
"","","","","","html-keyboard-response","207","2.0.0","355457","pxfxcvaxbv7","null","<div style=""font-size: 75px;"">+</div>","null","","",""
"","","","","","image-keyboard-response","208","2.0.0","358093","pxfxcvaxbv7","2635","stimuli/26_100.jpg","f","response","f","true"
"","","","","","html-keyboard-response","209","2.0.0","358598","pxfxcvaxbv7","null","<p style=""border: 5px solid green;"">Correct!</p>","null","","",""
"","","","","","html-keyboard-response","210","2.0.0","359614","pxfxcvaxbv7","null","<div style=""font-size: 75px;"">+</div>","null","","",""
"","","","","","image-keyboard-response","211","2.0.0","361385","pxfxcvaxbv7","1770","stimuli/7_0.jpg","f","response","f","true"
"","","","","","html-keyboard-response","212","2.0.0","361901","pxfxcvaxbv7","null","<p style=""border: 5px solid green;"">Correct!</p>","null","","",""
"","","","","","html-keyboard-response","213","2.0.0","362906","pxfxcvaxbv7","null","<div style=""font-size: 75px;"">+</div>","null","","",""
"","","","","","image-keyboard-response","214","2.0.0","364404","pxfxcvaxbv7","1497","stimuli/4_50.jpg","f","response","f","true"
"","","","","","html-keyboard-response","215","2.0.0","364912","pxfxcvaxbv7","null","<p style=""border: 5px solid green;"">Correct!</p>","null","","",""
"","","","","","html-keyboard-response","216","2.0.0","365915","pxfxcvaxbv7","null","<div style=""font-size: 75px;"">+</div>","null","","",""
"","","","","","image-keyboard-response","217","2.0.0","367869","pxfxcvaxbv7","1953","stimuli/6_100_R.jpg","j","response","j","true"
"","","","","","html-keyboard-response","218","2.0.0","368372","pxfxcvaxbv7","null","<p style=""border: 5px solid green;"">Correct!</p>","null","","",""
"","","","","","html-keyboard-response","219","2.0.0","369374","pxfxcvaxbv7","null","<div style=""font-size: 75px;"">+</div>","null","","",""
"","","","","","image-keyboard-response","220","2.0.0","370615","pxfxcvaxbv7","1240","stimuli/41_100_R.jpg","f","response","j","false"
"","","","","","html-keyboard-response","221","2.0.0","371130","pxfxcvaxbv7","null","<p style=""border: 5px solid red;"">Incorrect.</p>","null","","",""
"","","","","","html-keyboard-response","222","2.0.0","372135","pxfxcvaxbv7","null","<div style=""font-size: 75px;"">+</div>","null","","",""
"","","","","","image-keyboard-response","223","2.0.0","375203","pxfxcvaxbv7","3067","stimuli/33_50.jpg","f","response","f","true"
"","","","","","html-keyboard-response","224","2.0.0","375714","pxfxcvaxbv7","null","<p style=""border: 5px solid green;"">Correct!</p>","null","","",""
"","","","","","html-keyboard-response","225","2.0.0","376720","pxfxcvaxbv7","null","<div style=""font-size: 75px;"">+</div>","null","","",""
"","","","","","image-keyboard-response","226","2.0.0","378603","pxfxcvaxbv7","1882","stimuli/23_150.jpg","f","response","f","true"
"","","","","","html-keyboard-response","227","2.0.0","379110","pxfxcvaxbv7","null","<p style=""border: 5px solid green;"">Correct!</p>","null","","",""
"","","","","","html-keyboard-response","228","2.0.0","380114","pxfxcvaxbv7","null","<div style=""font-size: 75px;"">+</div>","null","","",""
"","","","","","image-keyboard-response","229","2.0.0","382704","pxfxcvaxbv7","2589","stimuli/11_150_R.jpg","j","response","j","true"
"","","","","","html-keyboard-response","230","2.0.0","383219","pxfxcvaxbv7","null","<p style=""border: 5px solid green;"">Correct!</p>","null","","",""
"","","","","","html-keyboard-response","231","2.0.0","384223","pxfxcvaxbv7","null","<div style=""font-size: 75px;"">+</div>","null","","",""
"","","","","","image-keyboard-response","232","2.0.0","384963","pxfxcvaxbv7","739","stimuli/30_0.jpg","f","response","f","true"
"","","","","","html-keyboard-response","233","2.0.0","385473","pxfxcvaxbv7","null","<p style=""border: 5px solid green;"">Correct!</p>","null","","",""
"","","","","","html-keyboard-response","234","2.0.0","386477","pxfxcvaxbv7","null","<div style=""font-size: 75px;"">+</div>","null","","",""
"","","","","","image-keyboard-response","235","2.0.0","387354","pxfxcvaxbv7","876","stimuli/43_0.jpg","f","response","f","true"
"","","","","","html-keyboard-response","236","2.0.0","387866","pxfxcvaxbv7","null","<p style=""border: 5px solid green;"">Correct!</p>","null","","",""
"","","","","","html-keyboard-response","237","2.0.0","388869","pxfxcvaxbv7","null","<div style=""font-size: 75px;"">+</div>","null","","",""
"","","","","","image-keyboard-response","238","2.0.0","390154","pxfxcvaxbv7","1284","stimuli/1_150.jpg","f","response","f","true"
"","","","","","html-keyboard-response","239","2.0.0","390668","pxfxcvaxbv7","null","<p style=""border: 5px solid green;"">Correct!</p>","null","","",""
"","","","","","html-keyboard-response","240","2.0.0","391670","pxfxcvaxbv7","null","<div style=""font-size: 75px;"">+</div>","null","","",""
"","","","","","image-keyboard-response","241","2.0.0","394881","pxfxcvaxbv7","3210","stimuli/42_50.jpg","f","response","f","true"
"","","","","","html-keyboard-response","242","2.0.0","395383","pxfxcvaxbv7","null","<p style=""border: 5px solid green;"">Correct!</p>","null","","",""
"","","","","","html-keyboard-response","243","2.0.0","396387","pxfxcvaxbv7","null","<div style=""font-size: 75px;"">+</div>","null","","",""
"","","","","","image-keyboard-response","244","2.0.0","398285","pxfxcvaxbv7","1897","stimuli/45_150_R.jpg","j","response","j","true"
"","","","","","html-keyboard-response","245","2.0.0","398795","pxfxcvaxbv7","null","<p style=""border: 5px solid green;"">Correct!</p>","null","","",""
"","","","","","html-keyboard-response","246","2.0.0","399799","pxfxcvaxbv7","null","<div style=""font-size: 75px;"">+</div>","null","","",""
"","","","","","image-keyboard-response","247","2.0.0","401578","pxfxcvaxbv7","1778","stimuli/38_50_R.jpg","j","response","j","true"
"","","","","","html-keyboard-response","248","2.0.0","402093","pxfxcvaxbv7","null","<p style=""border: 5px solid green;"">Correct!</p>","null","","",""
"","","","","","html-keyboard-response","249","2.0.0","403098","pxfxcvaxbv7","null","<div style=""font-size: 75px;"">+</div>","null","","",""
"","","","","","image-keyboard-response","250","2.0.0","407494","pxfxcvaxbv7","4395","stimuli/31_150.jpg","j","response","f","false"
"","","","","","html-keyboard-response","251","2.0.0","408009","pxfxcvaxbv7","null","<p style=""border: 5px solid red;"">Incorrect.</p>","null","","",""
"","","","","","html-keyboard-response","252","2.0.0","409010","pxfxcvaxbv7","null","<div style=""font-size: 75px;"">+</div>","null","","",""
"","","","","","image-keyboard-response","253","2.0.0","410431","pxfxcvaxbv7","1420","stimuli/29_0_R.jpg","j","response","j","true"
"","","","","","html-keyboard-response","254","2.0.0","410938","pxfxcvaxbv7","null","<p style=""border: 5px solid green;"">Correct!</p>","null","","",""
"","","","","","html-keyboard-response","255","2.0.0","411949","pxfxcvaxbv7","null","<div style=""font-size: 75px;"">+</div>","null","","",""
"","","","","","image-keyboard-response","256","2.0.0","413514","pxfxcvaxbv7","1564","stimuli/2_150_R.jpg","j","response","j","true"
"","","","","","html-keyboard-response","257","2.0.0","414017","pxfxcvaxbv7","null","<p style=""border: 5px solid green;"">Correct!</p>","null","","",""
"","","","","","html-keyboard-response","258","2.0.0","415020","pxfxcvaxbv7","null","<div style=""font-size: 75px;"">+</div>","null","","",""
"","","","","","image-keyboard-response","259","2.0.0","418756","pxfxcvaxbv7","3735","stimuli/2_0_R.jpg","f","response","j","false"
"","","","","","html-keyboard-response","260","2.0.0","419266","pxfxcvaxbv7","null","<p style=""border: 5px solid red;"">Incorrect.</p>","null","","",""
"","","","","","html-keyboard-response","261","2.0.0","420269","pxfxcvaxbv7","null","<div style=""font-size: 75px;"">+</div>","null","","",""
"","","","","","image-keyboard-response","262","2.0.0","423263","pxfxcvaxbv7","2993","stimuli/28_100_R.jpg","j","response","j","true"
"","","","","","html-keyboard-response","263","2.0.0","423766","pxfxcvaxbv7","null","<p style=""border: 5px solid green;"">Correct!</p>","null","","",""
"","","","","","html-keyboard-response","264","2.0.0","424769","pxfxcvaxbv7","null","<div style=""font-size: 75px;"">+</div>","null","","",""
"","","","","","image-keyboard-response","265","2.0.0","426290","pxfxcvaxbv7","1520","stimuli/30_150.jpg","j","response","f","false"
"","","","","","html-keyboard-response","266","2.0.0","426796","pxfxcvaxbv7","null","<p style=""border: 5px solid red;"">Incorrect.</p>","null","","",""
"","","","","","html-keyboard-response","267","2.0.0","427800","pxfxcvaxbv7","null","<div style=""font-size: 75px;"">+</div>","null","","",""
"","","","","","image-keyboard-response","268","2.0.0","430624","pxfxcvaxbv7","2823","stimuli/35_0_R.jpg","j","response","j","true"
"","","","","","html-keyboard-response","269","2.0.0","431138","pxfxcvaxbv7","null","<p style=""border: 5px solid green;"">Correct!</p>","null","","",""
"","","","","","html-keyboard-response","270","2.0.0","432143","pxfxcvaxbv7","null","<div style=""font-size: 75px;"">+</div>","null","","",""
"","","","","","image-keyboard-response","271","2.0.0","435151","pxfxcvaxbv7","3007","stimuli/17_100_R.jpg","j","response","j","true"
"","","","","","html-keyboard-response","272","2.0.0","435664","pxfxcvaxbv7","null","<p style=""border: 5px solid green;"">Correct!</p>","null","","",""
"","","","","","html-keyboard-response","273","2.0.0","436670","pxfxcvaxbv7","null","<div style=""font-size: 75px;"">+</div>","null","","",""
"","","","","","image-keyboard-response","274","2.0.0","437620","pxfxcvaxbv7","950","stimuli/27_50_R.jpg","j","response","j","true"
"","","","","","html-keyboard-response","275","2.0.0","438121","pxfxcvaxbv7","null","<p style=""border: 5px solid green;"">Correct!</p>","null","","",""
"","","","","","html-keyboard-response","276","2.0.0","439124","pxfxcvaxbv7","null","<div style=""font-size: 75px;"">+</div>","null","","",""
"","","","","","image-keyboard-response","277","2.0.0","441595","pxfxcvaxbv7","2470","stimuli/24_150_R.jpg","f","response","j","false"
"","","","","","html-keyboard-response","278","2.0.0","442099","pxfxcvaxbv7","null","<p style=""border: 5px solid red;"">Incorrect.</p>","null","","",""
"","","","","","html-keyboard-response","279","2.0.0","443102","pxfxcvaxbv7","null","<div style=""font-size: 75px;"">+</div>","null","","",""
"","","","","","image-keyboard-response","280","2.0.0","448320","pxfxcvaxbv7","5217","stimuli/12_50_R.jpg","j","response","j","true"
"","","","","","html-keyboard-response","281","2.0.0","448832","pxfxcvaxbv7","null","<p style=""border: 5px solid green;"">Correct!</p>","null","","",""
"","","","","","html-keyboard-response","282","2.0.0","449838","pxfxcvaxbv7","null","<div style=""font-size: 75px;"">+</div>","null","","",""
"","","","","","image-keyboard-response","283","2.0.0","456455","pxfxcvaxbv7","6616","stimuli/36_50.jpg","j","response","f","false"
"","","","","","html-keyboard-response","284","2.0.0","456959","pxfxcvaxbv7","null","<p style=""border: 5px solid red;"">Incorrect.</p>","null","","",""
"","","","","","html-keyboard-response","285","2.0.0","457963","pxfxcvaxbv7","null","<div style=""font-size: 75px;"">+</div>","null","","",""
"","","","","","image-keyboard-response","286","2.0.0","460455","pxfxcvaxbv7","2491","stimuli/21_150_R.jpg","j","response","j","true"
"","","","","","html-keyboard-response","287","2.0.0","460958","pxfxcvaxbv7","null","<p style=""border: 5px solid green;"">Correct!</p>","null","","",""
"","","","","","html-keyboard-response","288","2.0.0","461960","pxfxcvaxbv7","null","<div style=""font-size: 75px;"">+</div>","null","","",""
"","","","","","image-keyboard-response","289","2.0.0","464564","pxfxcvaxbv7","2603","stimuli/2_100_R.jpg","j","response","j","true"
"","","","","","html-keyboard-response","290","2.0.0","465078","pxfxcvaxbv7","null","<p style=""border: 5px solid green;"">Correct!</p>","null","","",""
"","","","","","html-keyboard-response","291","2.0.0","466094","pxfxcvaxbv7","null","<div style=""font-size: 75px;"">+</div>","null","","",""
"","","","","","image-keyboard-response","292","2.0.0","471595","pxfxcvaxbv7","5501","stimuli/33_100_R.jpg","j","response","j","true"
"","","","","","html-keyboard-response","293","2.0.0","472110","pxfxcvaxbv7","null","<p style=""border: 5px solid green;"">Correct!</p>","null","","",""
"","","","","","html-keyboard-response","294","2.0.0","473706","pxfxcvaxbv7","1596","<p>Thank you for participating!</p><p>Please press space to answer our survey.</p>"," ","","",""
"","","","","","survey-html-form","295","null","611366","pxfxcvaxbv7","137659","","{""response_1"":""Clear and lively"",""response_2"":""Moderately clear and lively"",""response_3"":""Moderately clear and lively"",""response_4"":""Clear and lively"",""response_5"":""Moderately clear and lively"",""response_6"":""Dim and vague; flat"",""response_7"":""Dim and vague; flat"",""response_8"":""Moderately clear and lively"",""response_9"":""Perfectly clear and lively as real seeing"",""response_10"":""Moderately clear and lively"",""response_11"":""Clear and lively"",""response_12"":""Clear and lively"",""response_13"":""Moderately clear and lively"",""response_14"":""Clear and lively"",""response_15"":""Dim and vague; flat"",""response_16"":""Moderately clear and lively""}","","",""
"","","","","","survey-html-form","296","null","652422","pxfxcvaxbv7","41055","","{""age"":""21"",""gender"":""male"",""education"":""some-college"",""handedness"":""right"",""vision"":""normal"",""technical_difficulties"":"""",""knowledge_check"":""How fast we can rotate objects in our mind based on the difference in angle ""}","","",""
