"success","timeout","failed_images","failed_audio","failed_video","trial_type","trial_index","plugin_version","time_elapsed","random_id","rt","stimulus","response","task","correct_response","correct"
"true","false","[]","[]","[]","preload","0","2.0.0","1716","pxobfx9afl8","","","","","",""
"true","","","","","fullscreen","1","2.0.0","5103","pxobfx9afl8","2384","","","","",""
"","","","","","html-keyboard-response","2","2.0.0","5879","pxobfx9afl8","775","Welcome to the experiment. Press any key to begin.","j","","",""
"","","","","","survey-text","3","2.0.0","9531","pxobfx9afl8","3645","","{""participant_id"":""jaguar""}","","",""
"","","","","","html-keyboard-response","4","2.0.0","15389","pxobfx9afl8","5857","
        <p>Welcome to the experiment.</p>
        <p>In this task, you will see pairs of images.</p>
        <p>Your job is to determine whether the image on the right is a rotated version of the image on the left.</p>
        <p>Press the <strong>F</strong> key if the images are the same.</p>
        <p>Press the <strong>J</strong> key if the images are different.</p>
        <p>Press any key to begin.</p>
    "," ","","",""
"","","","","","html-keyboard-response","5","2.0.0","16391","pxobfx9afl8","null","<div style=""font-size: 75px;"">+</div>","null","","",""
"","","","","","image-keyboard-response","6","2.0.0","24496","pxobfx9afl8","8102","stimuli/34_50_R.jpg","j","response","j","true"
"","","","","","html-keyboard-response","7","2.0.0","24998","pxobfx9afl8","null","<p style=""border: 5px solid green;"">Correct!</p>","null","","",""
"","","","","","html-keyboard-response","8","2.0.0","26001","pxobfx9afl8","null","<div style=""font-size: 75px;"">+</div>","null","","",""
"","","","","","image-keyboard-response","9","2.0.0","31420","pxobfx9afl8","5418","stimuli/38_150.jpg","f","response","f","true"
"","","","","","html-keyboard-response","10","2.0.0","31922","pxobfx9afl8","null","<p style=""border: 5px solid green;"">Correct!</p>","null","","",""
"","","","","","html-keyboard-response","11","2.0.0","32924","pxobfx9afl8","null","<div style=""font-size: 75px;"">+</div>","null","","",""
"","","","","","image-keyboard-response","12","2.0.0","35601","pxobfx9afl8","2675","stimuli/2_50.jpg","f","response","f","true"
"","","","","","html-keyboard-response","13","2.0.0","36102","pxobfx9afl8","null","<p style=""border: 5px solid green;"">Correct!</p>","null","","",""
"","","","","","html-keyboard-response","14","2.0.0","37104","pxobfx9afl8","null","<div style=""font-size: 75px;"">+</div>","null","","",""
"","","","","","image-keyboard-response","15","2.0.0","40951","pxobfx9afl8","3845","stimuli/31_150.jpg","f","response","f","true"
"","","","","","html-keyboard-response","16","2.0.0","41453","pxobfx9afl8","null","<p style=""border: 5px solid green;"">Correct!</p>","null","","",""
"","","","","","html-keyboard-response","17","2.0.0","42456","pxobfx9afl8","null","<div style=""font-size: 75px;"">+</div>","null","","",""
"","","","","","image-keyboard-response","18","2.0.0","44607","pxobfx9afl8","2149","stimuli/38_50.jpg","j","response","f","false"
"","","","","","html-keyboard-response","19","2.0.0","45109","pxobfx9afl8","null","<p style=""border: 5px solid red;"">Incorrect.</p>","null","","",""
"","","","","","html-keyboard-response","20","2.0.0","46113","pxobfx9afl8","null","<div style=""font-size: 75px;"">+</div>","null","","",""
"","","","","","image-keyboard-response","21","2.0.0","49454","pxobfx9afl8","3339","stimuli/45_50.jpg","f","response","f","true"
"","","","","","html-keyboard-response","22","2.0.0","49955","pxobfx9afl8","null","<p style=""border: 5px solid green;"">Correct!</p>","null","","",""
"","","","","","html-keyboard-response","23","2.0.0","50958","pxobfx9afl8","null","<div style=""font-size: 75px;"">+</div>","null","","",""
"","","","","","image-keyboard-response","24","2.0.0","56651","pxobfx9afl8","5691","stimuli/6_100.jpg","f","response","f","true"
"","","","","","html-keyboard-response","25","2.0.0","57154","pxobfx9afl8","null","<p style=""border: 5px solid green;"">Correct!</p>","null","","",""
"","","","","","html-keyboard-response","26","2.0.0","58156","pxobfx9afl8","null","<div style=""font-size: 75px;"">+</div>","null","","",""
"","","","","","image-keyboard-response","27","2.0.0","60804","pxobfx9afl8","2645","stimuli/22_50.jpg","f","response","f","true"
"","","","","","html-keyboard-response","28","2.0.0","61309","pxobfx9afl8","null","<p style=""border: 5px solid green;"">Correct!</p>","null","","",""
"","","","","","html-keyboard-response","29","2.0.0","62313","pxobfx9afl8","null","<div style=""font-size: 75px;"">+</div>","null","","",""
"","","","","","image-keyboard-response","30","2.0.0","66237","pxobfx9afl8","3921","stimuli/26_50.jpg","f","response","f","true"
"","","","","","html-keyboard-response","31","2.0.0","66739","pxobfx9afl8","null","<p style=""border: 5px solid green;"">Correct!</p>","null","","",""
"","","","","","html-keyboard-response","32","2.0.0","67743","pxobfx9afl8","null","<div style=""font-size: 75px;"">+</div>","null","","",""
"","","","","","image-keyboard-response","33","2.0.0","70641","pxobfx9afl8","2895","stimuli/41_0_R.jpg","j","response","j","true"
"","","","","","html-keyboard-response","34","2.0.0","71144","pxobfx9afl8","null","<p style=""border: 5px solid green;"">Correct!</p>","null","","",""
"","","","","","html-keyboard-response","35","2.0.0","72147","pxobfx9afl8","null","<div style=""font-size: 75px;"">+</div>","null","","",""
"","","","","","image-keyboard-response","36","2.0.0","76528","pxobfx9afl8","4378","stimuli/18_150.jpg","f","response","f","true"
"","","","","","html-keyboard-response","37","2.0.0","77030","pxobfx9afl8","null","<p style=""border: 5px solid green;"">Correct!</p>","null","","",""
"","","","","","html-keyboard-response","38","2.0.0","78033","pxobfx9afl8","null","<div style=""font-size: 75px;"">+</div>","null","","",""
"","","","","","image-keyboard-response","39","2.0.0","79236","pxobfx9afl8","1201","stimuli/47_0.jpg","f","response","f","true"
"","","","","","html-keyboard-response","40","2.0.0","79738","pxobfx9afl8","null","<p style=""border: 5px solid green;"">Correct!</p>","null","","",""
"","","","","","html-keyboard-response","41","2.0.0","80741","pxobfx9afl8","null","<div style=""font-size: 75px;"">+</div>","null","","",""
"","","","","","image-keyboard-response","42","2.0.0","82851","pxobfx9afl8","2107","stimuli/46_50.jpg","f","response","f","true"
"","","","","","html-keyboard-response","43","2.0.0","83353","pxobfx9afl8","null","<p style=""border: 5px solid green;"">Correct!</p>","null","","",""
"","","","","","html-keyboard-response","44","2.0.0","84356","pxobfx9afl8","null","<div style=""font-size: 75px;"">+</div>","null","","",""
"","","","","","image-keyboard-response","45","2.0.0","87263","pxobfx9afl8","2904","stimuli/9_150_R.jpg","j","response","j","true"
"","","","","","html-keyboard-response","46","2.0.0","87765","pxobfx9afl8","null","<p style=""border: 5px solid green;"">Correct!</p>","null","","",""
"","","","","","html-keyboard-response","47","2.0.0","88767","pxobfx9afl8","null","<div style=""font-size: 75px;"">+</div>","null","","",""
"","","","","","image-keyboard-response","48","2.0.0","90082","pxobfx9afl8","1313","stimuli/47_0_R.jpg","j","response","j","true"
"","","","","","html-keyboard-response","49","2.0.0","90584","pxobfx9afl8","null","<p style=""border: 5px solid green;"">Correct!</p>","null","","",""
"","","","","","html-keyboard-response","50","2.0.0","91587","pxobfx9afl8","null","<div style=""font-size: 75px;"">+</div>","null","","",""
"","","","","","image-keyboard-response","51","2.0.0","94286","pxobfx9afl8","2697","stimuli/15_150.jpg","f","response","f","true"
"","","","","","html-keyboard-response","52","2.0.0","94789","pxobfx9afl8","null","<p style=""border: 5px solid green;"">Correct!</p>","null","","",""
"","","","","","html-keyboard-response","53","2.0.0","95792","pxobfx9afl8","null","<div style=""font-size: 75px;"">+</div>","null","","",""
"","","","","","image-keyboard-response","54","2.0.0","97854","pxobfx9afl8","2060","stimuli/41_100.jpg","f","response","f","true"
"","","","","","html-keyboard-response","55","2.0.0","98356","pxobfx9afl8","null","<p style=""border: 5px solid green;"">Correct!</p>","null","","",""
"","","","","","html-keyboard-response","56","2.0.0","99358","pxobfx9afl8","null","<div style=""font-size: 75px;"">+</div>","null","","",""
"","","","","","image-keyboard-response","57","2.0.0","100892","pxobfx9afl8","1532","stimuli/37_50.jpg","f","response","f","true"
"","","","","","html-keyboard-response","58","2.0.0","101394","pxobfx9afl8","null","<p style=""border: 5px solid green;"">Correct!</p>","null","","",""
"","","","","","html-keyboard-response","59","2.0.0","102397","pxobfx9afl8","null","<div style=""font-size: 75px;"">+</div>","null","","",""
"","","","","","image-keyboard-response","60","2.0.0","104598","pxobfx9afl8","2200","stimuli/46_150_R.jpg","j","response","j","true"
"","","","","","html-keyboard-response","61","2.0.0","105101","pxobfx9afl8","null","<p style=""border: 5px solid green;"">Correct!</p>","null","","",""
"","","","","","html-keyboard-response","62","2.0.0","106104","pxobfx9afl8","null","<div style=""font-size: 75px;"">+</div>","null","","",""
"","","","","","image-keyboard-response","63","2.0.0","110075","pxobfx9afl8","3970","stimuli/21_100_R.jpg","j","response","j","true"
"","","","","","html-keyboard-response","64","2.0.0","110578","pxobfx9afl8","null","<p style=""border: 5px solid green;"">Correct!</p>","null","","",""
"","","","","","html-keyboard-response","65","2.0.0","111581","pxobfx9afl8","null","<div style=""font-size: 75px;"">+</div>","null","","",""
"","","","","","image-keyboard-response","66","2.0.0","113819","pxobfx9afl8","2236","stimuli/34_50.jpg","f","response","f","true"
"","","","","","html-keyboard-response","67","2.0.0","114321","pxobfx9afl8","null","<p style=""border: 5px solid green;"">Correct!</p>","null","","",""
"","","","","","html-keyboard-response","68","2.0.0","115324","pxobfx9afl8","null","<div style=""font-size: 75px;"">+</div>","null","","",""
"","","","","","image-keyboard-response","69","2.0.0","118141","pxobfx9afl8","2814","stimuli/25_100_R.jpg","f","response","j","false"
"","","","","","html-keyboard-response","70","2.0.0","118643","pxobfx9afl8","null","<p style=""border: 5px solid red;"">Incorrect.</p>","null","","",""
"","","","","","html-keyboard-response","71","2.0.0","119646","pxobfx9afl8","null","<div style=""font-size: 75px;"">+</div>","null","","",""
"","","","","","image-keyboard-response","72","2.0.0","121694","pxobfx9afl8","2046","stimuli/1_150_R.jpg","j","response","j","true"
"","","","","","html-keyboard-response","73","2.0.0","122196","pxobfx9afl8","null","<p style=""border: 5px solid green;"">Correct!</p>","null","","",""
"","","","","","html-keyboard-response","74","2.0.0","123198","pxobfx9afl8","null","<div style=""font-size: 75px;"">+</div>","null","","",""
"","","","","","image-keyboard-response","75","2.0.0","125358","pxobfx9afl8","2159","stimuli/5_0_R.jpg","f","response","j","false"
"","","","","","html-keyboard-response","76","2.0.0","125860","pxobfx9afl8","null","<p style=""border: 5px solid red;"">Incorrect.</p>","null","","",""
"","","","","","html-keyboard-response","77","2.0.0","126862","pxobfx9afl8","null","<div style=""font-size: 75px;"">+</div>","null","","",""
"","","","","","image-keyboard-response","78","2.0.0","130201","pxobfx9afl8","3337","stimuli/7_100.jpg","f","response","f","true"
"","","","","","html-keyboard-response","79","2.0.0","130702","pxobfx9afl8","null","<p style=""border: 5px solid green;"">Correct!</p>","null","","",""
"","","","","","html-keyboard-response","80","2.0.0","131705","pxobfx9afl8","null","<div style=""font-size: 75px;"">+</div>","null","","",""
"","","","","","image-keyboard-response","81","2.0.0","133065","pxobfx9afl8","1357","stimuli/13_0.jpg","f","response","f","true"
"","","","","","html-keyboard-response","82","2.0.0","133567","pxobfx9afl8","null","<p style=""border: 5px solid green;"">Correct!</p>","null","","",""
"","","","","","html-keyboard-response","83","2.0.0","134570","pxobfx9afl8","null","<div style=""font-size: 75px;"">+</div>","null","","",""
"","","","","","image-keyboard-response","84","2.0.0","139336","pxobfx9afl8","4763","stimuli/5_50_R.jpg","j","response","j","true"
"","","","","","html-keyboard-response","85","2.0.0","139838","pxobfx9afl8","null","<p style=""border: 5px solid green;"">Correct!</p>","null","","",""
"","","","","","html-keyboard-response","86","2.0.0","140841","pxobfx9afl8","null","<div style=""font-size: 75px;"">+</div>","null","","",""
"","","","","","image-keyboard-response","87","2.0.0","145097","pxobfx9afl8","4254","stimuli/39_150_R.jpg","j","response","j","true"
"","","","","","html-keyboard-response","88","2.0.0","145600","pxobfx9afl8","null","<p style=""border: 5px solid green;"">Correct!</p>","null","","",""
"","","","","","html-keyboard-response","89","2.0.0","146603","pxobfx9afl8","null","<div style=""font-size: 75px;"">+</div>","null","","",""
"","","","","","image-keyboard-response","90","2.0.0","149064","pxobfx9afl8","2458","stimuli/25_50.jpg","j","response","f","false"
"","","","","","html-keyboard-response","91","2.0.0","149566","pxobfx9afl8","null","<p style=""border: 5px solid red;"">Incorrect.</p>","null","","",""
"","","","","","html-keyboard-response","92","2.0.0","150568","pxobfx9afl8","null","<div style=""font-size: 75px;"">+</div>","null","","",""
"","","","","","image-keyboard-response","93","2.0.0","152819","pxobfx9afl8","2249","stimuli/6_0_R.jpg","j","response","j","true"
"","","","","","html-keyboard-response","94","2.0.0","153322","pxobfx9afl8","null","<p style=""border: 5px solid green;"">Correct!</p>","null","","",""
"","","","","","html-keyboard-response","95","2.0.0","154325","pxobfx9afl8","null","<div style=""font-size: 75px;"">+</div>","null","","",""
"","","","","","image-keyboard-response","96","2.0.0","159301","pxobfx9afl8","4974","stimuli/23_150_R.jpg","j","response","j","true"
"","","","","","html-keyboard-response","97","2.0.0","159803","pxobfx9afl8","null","<p style=""border: 5px solid green;"">Correct!</p>","null","","",""
"","","","","","html-keyboard-response","98","2.0.0","160806","pxobfx9afl8","null","<div style=""font-size: 75px;"">+</div>","null","","",""
"","","","","","image-keyboard-response","99","2.0.0","163626","pxobfx9afl8","2818","stimuli/24_100.jpg","f","response","f","true"
"","","","","","html-keyboard-response","100","2.0.0","164128","pxobfx9afl8","null","<p style=""border: 5px solid green;"">Correct!</p>","null","","",""
"","","","","","html-keyboard-response","101","2.0.0","165131","pxobfx9afl8","null","<div style=""font-size: 75px;"">+</div>","null","","",""
"","","","","","image-keyboard-response","102","2.0.0","166856","pxobfx9afl8","1722","stimuli/6_50_R.jpg","j","response","j","true"
"","","","","","html-keyboard-response","103","2.0.0","167359","pxobfx9afl8","null","<p style=""border: 5px solid green;"">Correct!</p>","null","","",""
"","","","","","html-keyboard-response","104","2.0.0","168362","pxobfx9afl8","null","<div style=""font-size: 75px;"">+</div>","null","","",""
"","","","","","image-keyboard-response","105","2.0.0","169365","pxobfx9afl8","1001","stimuli/11_0.jpg","f","response","f","true"
"","","","","","html-keyboard-response","106","2.0.0","169867","pxobfx9afl8","null","<p style=""border: 5px solid green;"">Correct!</p>","null","","",""
"","","","","","html-keyboard-response","107","2.0.0","170870","pxobfx9afl8","null","<div style=""font-size: 75px;"">+</div>","null","","",""
"","","","","","image-keyboard-response","108","2.0.0","173738","pxobfx9afl8","2866","stimuli/17_100_R.jpg","j","response","j","true"
"","","","","","html-keyboard-response","109","2.0.0","174241","pxobfx9afl8","null","<p style=""border: 5px solid green;"">Correct!</p>","null","","",""
"","","","","","html-keyboard-response","110","2.0.0","175243","pxobfx9afl8","null","<div style=""font-size: 75px;"">+</div>","null","","",""
"","","","","","image-keyboard-response","111","2.0.0","179889","pxobfx9afl8","4644","stimuli/36_100_R.jpg","j","response","j","true"
"","","","","","html-keyboard-response","112","2.0.0","180392","pxobfx9afl8","null","<p style=""border: 5px solid green;"">Correct!</p>","null","","",""
"","","","","","html-keyboard-response","113","2.0.0","181395","pxobfx9afl8","null","<div style=""font-size: 75px;"">+</div>","null","","",""
"","","","","","image-keyboard-response","114","2.0.0","184498","pxobfx9afl8","3101","stimuli/43_150_R.jpg","j","response","j","true"
"","","","","","html-keyboard-response","115","2.0.0","185000","pxobfx9afl8","null","<p style=""border: 5px solid green;"">Correct!</p>","null","","",""
"","","","","","html-keyboard-response","116","2.0.0","186003","pxobfx9afl8","null","<div style=""font-size: 75px;"">+</div>","null","","",""
"","","","","","image-keyboard-response","117","2.0.0","187663","pxobfx9afl8","1657","stimuli/25_0.jpg","f","response","f","true"
"","","","","","html-keyboard-response","118","2.0.0","188164","pxobfx9afl8","null","<p style=""border: 5px solid green;"">Correct!</p>","null","","",""
"","","","","","html-keyboard-response","119","2.0.0","189166","pxobfx9afl8","null","<div style=""font-size: 75px;"">+</div>","null","","",""
"","","","","","image-keyboard-response","120","2.0.0","191082","pxobfx9afl8","1913","stimuli/47_150.jpg","f","response","f","true"
"","","","","","html-keyboard-response","121","2.0.0","191583","pxobfx9afl8","null","<p style=""border: 5px solid green;"">Correct!</p>","null","","",""
"","","","","","html-keyboard-response","122","2.0.0","192587","pxobfx9afl8","null","<div style=""font-size: 75px;"">+</div>","null","","",""
"","","","","","image-keyboard-response","123","2.0.0","195334","pxobfx9afl8","2745","stimuli/1_150.jpg","f","response","f","true"
"","","","","","html-keyboard-response","124","2.0.0","195836","pxobfx9afl8","null","<p style=""border: 5px solid green;"">Correct!</p>","null","","",""
"","","","","","html-keyboard-response","125","2.0.0","196840","pxobfx9afl8","null","<div style=""font-size: 75px;"">+</div>","null","","",""
"","","","","","image-keyboard-response","126","2.0.0","198458","pxobfx9afl8","1616","stimuli/14_50_R.jpg","j","response","j","true"
"","","","","","html-keyboard-response","127","2.0.0","198960","pxobfx9afl8","null","<p style=""border: 5px solid green;"">Correct!</p>","null","","",""
"","","","","","html-keyboard-response","128","2.0.0","199963","pxobfx9afl8","null","<div style=""font-size: 75px;"">+</div>","null","","",""
"","","","","","image-keyboard-response","129","2.0.0","202851","pxobfx9afl8","2887","stimuli/38_0_R.jpg","j","response","j","true"
"","","","","","html-keyboard-response","130","2.0.0","203353","pxobfx9afl8","null","<p style=""border: 5px solid green;"">Correct!</p>","null","","",""
"","","","","","html-keyboard-response","131","2.0.0","204356","pxobfx9afl8","null","<div style=""font-size: 75px;"">+</div>","null","","",""
"","","","","","image-keyboard-response","132","2.0.0","206862","pxobfx9afl8","2504","stimuli/13_50_R.jpg","j","response","j","true"
"","","","","","html-keyboard-response","133","2.0.0","207364","pxobfx9afl8","null","<p style=""border: 5px solid green;"">Correct!</p>","null","","",""
"","","","","","html-keyboard-response","134","2.0.0","208366","pxobfx9afl8","null","<div style=""font-size: 75px;"">+</div>","null","","",""
"","","","","","image-keyboard-response","135","2.0.0","210456","pxobfx9afl8","2088","stimuli/34_100_R.jpg","j","response","j","true"
"","","","","","html-keyboard-response","136","2.0.0","210957","pxobfx9afl8","null","<p style=""border: 5px solid green;"">Correct!</p>","null","","",""
"","","","","","html-keyboard-response","137","2.0.0","211960","pxobfx9afl8","null","<div style=""font-size: 75px;"">+</div>","null","","",""
"","","","","","image-keyboard-response","138","2.0.0","213957","pxobfx9afl8","1995","stimuli/22_0.jpg","f","response","f","true"
"","","","","","html-keyboard-response","139","2.0.0","214458","pxobfx9afl8","null","<p style=""border: 5px solid green;"">Correct!</p>","null","","",""
"","","","","","html-keyboard-response","140","2.0.0","215461","pxobfx9afl8","null","<div style=""font-size: 75px;"">+</div>","null","","",""
"","","","","","image-keyboard-response","141","2.0.0","217525","pxobfx9afl8","2062","stimuli/25_0_R.jpg","j","response","j","true"
"","","","","","html-keyboard-response","142","2.0.0","218027","pxobfx9afl8","null","<p style=""border: 5px solid green;"">Correct!</p>","null","","",""
"","","","","","html-keyboard-response","143","2.0.0","219030","pxobfx9afl8","null","<div style=""font-size: 75px;"">+</div>","null","","",""
"","","","","","image-keyboard-response","144","2.0.0","221388","pxobfx9afl8","2356","stimuli/43_150.jpg","f","response","f","true"
"","","","","","html-keyboard-response","145","2.0.0","221890","pxobfx9afl8","null","<p style=""border: 5px solid green;"">Correct!</p>","null","","",""
"","","","","","html-keyboard-response","146","2.0.0","222893","pxobfx9afl8","null","<div style=""font-size: 75px;"">+</div>","null","","",""
"","","","","","image-keyboard-response","147","2.0.0","226090","pxobfx9afl8","3195","stimuli/28_150_R.jpg","j","response","j","true"
"","","","","","html-keyboard-response","148","2.0.0","226592","pxobfx9afl8","null","<p style=""border: 5px solid green;"">Correct!</p>","null","","",""
"","","","","","html-keyboard-response","149","2.0.0","256595","pxobfx9afl8","null","<p> Take a break! Experiment continues in 30 seconds . </p>","null","","",""
"","","","","","html-keyboard-response","150","2.0.0","257598","pxobfx9afl8","null","<div style=""font-size: 75px;"">+</div>","null","","",""
"","","","","","image-keyboard-response","151","2.0.0","264941","pxobfx9afl8","7341","stimuli/39_150.jpg","f","response","f","true"
"","","","","","html-keyboard-response","152","2.0.0","265442","pxobfx9afl8","null","<p style=""border: 5px solid green;"">Correct!</p>","null","","",""
"","","","","","html-keyboard-response","153","2.0.0","266445","pxobfx9afl8","null","<div style=""font-size: 75px;"">+</div>","null","","",""
"","","","","","image-keyboard-response","154","2.0.0","268137","pxobfx9afl8","1690","stimuli/27_50.jpg","j","response","f","false"
"","","","","","html-keyboard-response","155","2.0.0","268640","pxobfx9afl8","null","<p style=""border: 5px solid red;"">Incorrect.</p>","null","","",""
"","","","","","html-keyboard-response","156","2.0.0","269642","pxobfx9afl8","null","<div style=""font-size: 75px;"">+</div>","null","","",""
"","","","","","image-keyboard-response","157","2.0.0","275747","pxobfx9afl8","6103","stimuli/17_150_R.jpg","j","response","j","true"
"","","","","","html-keyboard-response","158","2.0.0","276250","pxobfx9afl8","null","<p style=""border: 5px solid green;"">Correct!</p>","null","","",""
"","","","","","html-keyboard-response","159","2.0.0","277252","pxobfx9afl8","null","<div style=""font-size: 75px;"">+</div>","null","","",""
"","","","","","image-keyboard-response","160","2.0.0","278248","pxobfx9afl8","993","stimuli/21_0.jpg","f","response","f","true"
"","","","","","html-keyboard-response","161","2.0.0","278749","pxobfx9afl8","null","<p style=""border: 5px solid green;"">Correct!</p>","null","","",""
"","","","","","html-keyboard-response","162","2.0.0","279751","pxobfx9afl8","null","<div style=""font-size: 75px;"">+</div>","null","","",""
"","","","","","image-keyboard-response","163","2.0.0","281983","pxobfx9afl8","2230","stimuli/16_50.jpg","f","response","f","true"
"","","","","","html-keyboard-response","164","2.0.0","282485","pxobfx9afl8","null","<p style=""border: 5px solid green;"">Correct!</p>","null","","",""
"","","","","","html-keyboard-response","165","2.0.0","283488","pxobfx9afl8","null","<div style=""font-size: 75px;"">+</div>","null","","",""
"","","","","","image-keyboard-response","166","2.0.0","285968","pxobfx9afl8","2479","stimuli/30_100.jpg","f","response","f","true"
"","","","","","html-keyboard-response","167","2.0.0","286471","pxobfx9afl8","null","<p style=""border: 5px solid green;"">Correct!</p>","null","","",""
"","","","","","html-keyboard-response","168","2.0.0","287474","pxobfx9afl8","null","<div style=""font-size: 75px;"">+</div>","null","","",""
"","","","","","image-keyboard-response","169","2.0.0","290152","pxobfx9afl8","2676","stimuli/45_100_R.jpg","j","response","j","true"
"","","","","","html-keyboard-response","170","2.0.0","290655","pxobfx9afl8","null","<p style=""border: 5px solid green;"">Correct!</p>","null","","",""
"","","","","","html-keyboard-response","171","2.0.0","291658","pxobfx9afl8","null","<div style=""font-size: 75px;"">+</div>","null","","",""
"","","","","","image-keyboard-response","172","2.0.0","293278","pxobfx9afl8","1618","stimuli/22_100.jpg","f","response","f","true"
"","","","","","html-keyboard-response","173","2.0.0","293779","pxobfx9afl8","null","<p style=""border: 5px solid green;"">Correct!</p>","null","","",""
"","","","","","html-keyboard-response","174","2.0.0","294782","pxobfx9afl8","null","<div style=""font-size: 75px;"">+</div>","null","","",""
"","","","","","image-keyboard-response","175","2.0.0","297327","pxobfx9afl8","2543","stimuli/47_100_R.jpg","j","response","j","true"
"","","","","","html-keyboard-response","176","2.0.0","297830","pxobfx9afl8","null","<p style=""border: 5px solid green;"">Correct!</p>","null","","",""
"","","","","","html-keyboard-response","177","2.0.0","298832","pxobfx9afl8","null","<div style=""font-size: 75px;"">+</div>","null","","",""
"","","","","","image-keyboard-response","178","2.0.0","300206","pxobfx9afl8","1371","stimuli/29_50_R.jpg","j","response","j","true"
"","","","","","html-keyboard-response","179","2.0.0","300707","pxobfx9afl8","null","<p style=""border: 5px solid green;"">Correct!</p>","null","","",""
"","","","","","html-keyboard-response","180","2.0.0","301710","pxobfx9afl8","null","<div style=""font-size: 75px;"">+</div>","null","","",""
"","","","","","image-keyboard-response","181","2.0.0","302901","pxobfx9afl8","1189","stimuli/18_50_R.jpg","j","response","j","true"
"","","","","","html-keyboard-response","182","2.0.0","303403","pxobfx9afl8","null","<p style=""border: 5px solid green;"">Correct!</p>","null","","",""
"","","","","","html-keyboard-response","183","2.0.0","304406","pxobfx9afl8","null","<div style=""font-size: 75px;"">+</div>","null","","",""
"","","","","","image-keyboard-response","184","2.0.0","305963","pxobfx9afl8","1555","stimuli/29_150_R.jpg","f","response","j","false"
"","","","","","html-keyboard-response","185","2.0.0","306465","pxobfx9afl8","null","<p style=""border: 5px solid red;"">Incorrect.</p>","null","","",""
"","","","","","html-keyboard-response","186","2.0.0","307468","pxobfx9afl8","null","<div style=""font-size: 75px;"">+</div>","null","","",""
"","","","","","image-keyboard-response","187","2.0.0","309257","pxobfx9afl8","1787","stimuli/28_50.jpg","f","response","f","true"
"","","","","","html-keyboard-response","188","2.0.0","309759","pxobfx9afl8","null","<p style=""border: 5px solid green;"">Correct!</p>","null","","",""
"","","","","","html-keyboard-response","189","2.0.0","310761","pxobfx9afl8","null","<div style=""font-size: 75px;"">+</div>","null","","",""
"","","","","","image-keyboard-response","190","2.0.0","311676","pxobfx9afl8","913","stimuli/5_0.jpg","f","response","f","true"
"","","","","","html-keyboard-response","191","2.0.0","312178","pxobfx9afl8","null","<p style=""border: 5px solid green;"">Correct!</p>","null","","",""
"","","","","","html-keyboard-response","192","2.0.0","313181","pxobfx9afl8","null","<div style=""font-size: 75px;"">+</div>","null","","",""
"","","","","","image-keyboard-response","193","2.0.0","315940","pxobfx9afl8","2757","stimuli/7_150_R.jpg","j","response","j","true"
"","","","","","html-keyboard-response","194","2.0.0","316442","pxobfx9afl8","null","<p style=""border: 5px solid green;"">Correct!</p>","null","","",""
"","","","","","html-keyboard-response","195","2.0.0","317444","pxobfx9afl8","null","<div style=""font-size: 75px;"">+</div>","null","","",""
"","","","","","image-keyboard-response","196","2.0.0","320420","pxobfx9afl8","2973","stimuli/36_100.jpg","f","response","f","true"
"","","","","","html-keyboard-response","197","2.0.0","320922","pxobfx9afl8","null","<p style=""border: 5px solid green;"">Correct!</p>","null","","",""
"","","","","","html-keyboard-response","198","2.0.0","321924","pxobfx9afl8","null","<div style=""font-size: 75px;"">+</div>","null","","",""
"","","","","","image-keyboard-response","199","2.0.0","325494","pxobfx9afl8","3568","stimuli/20_50_R.jpg","f","response","j","false"
"","","","","","html-keyboard-response","200","2.0.0","325997","pxobfx9afl8","null","<p style=""border: 5px solid red;"">Incorrect.</p>","null","","",""
"","","","","","html-keyboard-response","201","2.0.0","327000","pxobfx9afl8","null","<div style=""font-size: 75px;"">+</div>","null","","",""
"","","","","","image-keyboard-response","202","2.0.0","329887","pxobfx9afl8","2885","stimuli/35_50_R.jpg","j","response","j","true"
"","","","","","html-keyboard-response","203","2.0.0","330390","pxobfx9afl8","null","<p style=""border: 5px solid green;"">Correct!</p>","null","","",""
"","","","","","html-keyboard-response","204","2.0.0","331393","pxobfx9afl8","null","<div style=""font-size: 75px;"">+</div>","null","","",""
"","","","","","image-keyboard-response","205","2.0.0","334748","pxobfx9afl8","3353","stimuli/42_100.jpg","f","response","f","true"
"","","","","","html-keyboard-response","206","2.0.0","335250","pxobfx9afl8","null","<p style=""border: 5px solid green;"">Correct!</p>","null","","",""
"","","","","","html-keyboard-response","207","2.0.0","336253","pxobfx9afl8","null","<div style=""font-size: 75px;"">+</div>","null","","",""
"","","","","","image-keyboard-response","208","2.0.0","337815","pxobfx9afl8","1560","stimuli/16_0_R.jpg","j","response","j","true"
"","","","","","html-keyboard-response","209","2.0.0","338318","pxobfx9afl8","null","<p style=""border: 5px solid green;"">Correct!</p>","null","","",""
"","","","","","html-keyboard-response","210","2.0.0","339321","pxobfx9afl8","null","<div style=""font-size: 75px;"">+</div>","null","","",""
"","","","","","image-keyboard-response","211","2.0.0","341421","pxobfx9afl8","2098","stimuli/15_50_R.jpg","j","response","j","true"
"","","","","","html-keyboard-response","212","2.0.0","341923","pxobfx9afl8","null","<p style=""border: 5px solid green;"">Correct!</p>","null","","",""
"","","","","","html-keyboard-response","213","2.0.0","342926","pxobfx9afl8","null","<div style=""font-size: 75px;"">+</div>","null","","",""
"","","","","","image-keyboard-response","214","2.0.0","344015","pxobfx9afl8","1087","stimuli/32_50_R.jpg","j","response","j","true"
"","","","","","html-keyboard-response","215","2.0.0","344517","pxobfx9afl8","null","<p style=""border: 5px solid green;"">Correct!</p>","null","","",""
"","","","","","html-keyboard-response","216","2.0.0","345520","pxobfx9afl8","null","<div style=""font-size: 75px;"">+</div>","null","","",""
"","","","","","image-keyboard-response","217","2.0.0","346537","pxobfx9afl8","1015","stimuli/28_0.jpg","f","response","f","true"
"","","","","","html-keyboard-response","218","2.0.0","347038","pxobfx9afl8","null","<p style=""border: 5px solid green;"">Correct!</p>","null","","",""
"","","","","","html-keyboard-response","219","2.0.0","348041","pxobfx9afl8","null","<div style=""font-size: 75px;"">+</div>","null","","",""
"","","","","","image-keyboard-response","220","2.0.0","353534","pxobfx9afl8","5491","stimuli/11_100_R.jpg","j","response","j","true"
"","","","","","html-keyboard-response","221","2.0.0","354036","pxobfx9afl8","null","<p style=""border: 5px solid green;"">Correct!</p>","null","","",""
"","","","","","html-keyboard-response","222","2.0.0","355038","pxobfx9afl8","null","<div style=""font-size: 75px;"">+</div>","null","","",""
"","","","","","image-keyboard-response","223","2.0.0","357388","pxobfx9afl8","2348","stimuli/11_100.jpg","f","response","f","true"
"","","","","","html-keyboard-response","224","2.0.0","357891","pxobfx9afl8","null","<p style=""border: 5px solid green;"">Correct!</p>","null","","",""
"","","","","","html-keyboard-response","225","2.0.0","358894","pxobfx9afl8","null","<div style=""font-size: 75px;"">+</div>","null","","",""
"","","","","","image-keyboard-response","226","2.0.0","362982","pxobfx9afl8","4086","stimuli/42_150.jpg","f","response","f","true"
"","","","","","html-keyboard-response","227","2.0.0","363485","pxobfx9afl8","null","<p style=""border: 5px solid green;"">Correct!</p>","null","","",""
"","","","","","html-keyboard-response","228","2.0.0","364487","pxobfx9afl8","null","<div style=""font-size: 75px;"">+</div>","null","","",""
"","","","","","image-keyboard-response","229","2.0.0","366325","pxobfx9afl8","1837","stimuli/19_150_R.jpg","f","response","j","false"
"","","","","","html-keyboard-response","230","2.0.0","366827","pxobfx9afl8","null","<p style=""border: 5px solid red;"">Incorrect.</p>","null","","",""
"","","","","","html-keyboard-response","231","2.0.0","367830","pxobfx9afl8","null","<div style=""font-size: 75px;"">+</div>","null","","",""
"","","","","","image-keyboard-response","232","2.0.0","369106","pxobfx9afl8","1273","stimuli/46_0_R.jpg","j","response","j","true"
"","","","","","html-keyboard-response","233","2.0.0","369607","pxobfx9afl8","null","<p style=""border: 5px solid green;"">Correct!</p>","null","","",""
"","","","","","html-keyboard-response","234","2.0.0","370610","pxobfx9afl8","null","<div style=""font-size: 75px;"">+</div>","null","","",""
"","","","","","image-keyboard-response","235","2.0.0","373129","pxobfx9afl8","2517","stimuli/10_0_R.jpg","j","response","j","true"
"","","","","","html-keyboard-response","236","2.0.0","373632","pxobfx9afl8","null","<p style=""border: 5px solid green;"">Correct!</p>","null","","",""
"","","","","","html-keyboard-response","237","2.0.0","374635","pxobfx9afl8","null","<div style=""font-size: 75px;"">+</div>","null","","",""
"","","","","","image-keyboard-response","238","2.0.0","378667","pxobfx9afl8","4029","stimuli/45_150_R.jpg","j","response","j","true"
"","","","","","html-keyboard-response","239","2.0.0","379169","pxobfx9afl8","null","<p style=""border: 5px solid green;"">Correct!</p>","null","","",""
"","","","","","html-keyboard-response","240","2.0.0","380173","pxobfx9afl8","null","<div style=""font-size: 75px;"">+</div>","null","","",""
"","","","","","image-keyboard-response","241","2.0.0","383376","pxobfx9afl8","3202","stimuli/7_100_R.jpg","j","response","j","true"
"","","","","","html-keyboard-response","242","2.0.0","383878","pxobfx9afl8","null","<p style=""border: 5px solid green;"">Correct!</p>","null","","",""
"","","","","","html-keyboard-response","243","2.0.0","384880","pxobfx9afl8","null","<div style=""font-size: 75px;"">+</div>","null","","",""
"","","","","","image-keyboard-response","244","2.0.0","388605","pxobfx9afl8","3723","stimuli/48_100.jpg","f","response","f","true"
"","","","","","html-keyboard-response","245","2.0.0","389106","pxobfx9afl8","null","<p style=""border: 5px solid green;"">Correct!</p>","null","","",""
"","","","","","html-keyboard-response","246","2.0.0","390109","pxobfx9afl8","null","<div style=""font-size: 75px;"">+</div>","null","","",""
"","","","","","image-keyboard-response","247","2.0.0","394072","pxobfx9afl8","3960","stimuli/32_150.jpg","f","response","f","true"
"","","","","","html-keyboard-response","248","2.0.0","394574","pxobfx9afl8","null","<p style=""border: 5px solid green;"">Correct!</p>","null","","",""
"","","","","","html-keyboard-response","249","2.0.0","395577","pxobfx9afl8","null","<div style=""font-size: 75px;"">+</div>","null","","",""
"","","","","","image-keyboard-response","250","2.0.0","396692","pxobfx9afl8","1113","stimuli/15_0.jpg","f","response","f","true"
"","","","","","html-keyboard-response","251","2.0.0","397195","pxobfx9afl8","null","<p style=""border: 5px solid green;"">Correct!</p>","null","","",""
"","","","","","html-keyboard-response","252","2.0.0","398197","pxobfx9afl8","null","<div style=""font-size: 75px;"">+</div>","null","","",""
"","","","","","image-keyboard-response","253","2.0.0","399947","pxobfx9afl8","1747","stimuli/21_150.jpg","f","response","f","true"
"","","","","","html-keyboard-response","254","2.0.0","400449","pxobfx9afl8","null","<p style=""border: 5px solid green;"">Correct!</p>","null","","",""
"","","","","","html-keyboard-response","255","2.0.0","401452","pxobfx9afl8","null","<div style=""font-size: 75px;"">+</div>","null","","",""
"","","","","","image-keyboard-response","256","2.0.0","403255","pxobfx9afl8","1801","stimuli/20_150.jpg","f","response","f","true"
"","","","","","html-keyboard-response","257","2.0.0","403757","pxobfx9afl8","null","<p style=""border: 5px solid green;"">Correct!</p>","null","","",""
"","","","","","html-keyboard-response","258","2.0.0","404760","pxobfx9afl8","null","<div style=""font-size: 75px;"">+</div>","null","","",""
"","","","","","image-keyboard-response","259","2.0.0","407556","pxobfx9afl8","2794","stimuli/26_50_R.jpg","j","response","j","true"
"","","","","","html-keyboard-response","260","2.0.0","408057","pxobfx9afl8","null","<p style=""border: 5px solid green;"">Correct!</p>","null","","",""
"","","","","","html-keyboard-response","261","2.0.0","409061","pxobfx9afl8","null","<div style=""font-size: 75px;"">+</div>","null","","",""
"","","","","","image-keyboard-response","262","2.0.0","412922","pxobfx9afl8","3859","stimuli/31_100_R.jpg","j","response","j","true"
"","","","","","html-keyboard-response","263","2.0.0","413423","pxobfx9afl8","null","<p style=""border: 5px solid green;"">Correct!</p>","null","","",""
"","","","","","html-keyboard-response","264","2.0.0","414426","pxobfx9afl8","null","<div style=""font-size: 75px;"">+</div>","null","","",""
"","","","","","image-keyboard-response","265","2.0.0","415589","pxobfx9afl8","1162","stimuli/19_0.jpg","f","response","f","true"
"","","","","","html-keyboard-response","266","2.0.0","416092","pxobfx9afl8","null","<p style=""border: 5px solid green;"">Correct!</p>","null","","",""
"","","","","","html-keyboard-response","267","2.0.0","417095","pxobfx9afl8","null","<div style=""font-size: 75px;"">+</div>","null","","",""
"","","","","","image-keyboard-response","268","2.0.0","417966","pxobfx9afl8","869","stimuli/23_0.jpg","f","response","f","true"
"","","","","","html-keyboard-response","269","2.0.0","418468","pxobfx9afl8","null","<p style=""border: 5px solid green;"">Correct!</p>","null","","",""
"","","","","","html-keyboard-response","270","2.0.0","419470","pxobfx9afl8","null","<div style=""font-size: 75px;"">+</div>","null","","",""
"","","","","","image-keyboard-response","271","2.0.0","421205","pxobfx9afl8","1733","stimuli/42_100_R.jpg","j","response","j","true"
"","","","","","html-keyboard-response","272","2.0.0","421707","pxobfx9afl8","null","<p style=""border: 5px solid green;"">Correct!</p>","null","","",""
"","","","","","html-keyboard-response","273","2.0.0","422711","pxobfx9afl8","null","<div style=""font-size: 75px;"">+</div>","null","","",""
"","","","","","image-keyboard-response","274","2.0.0","424102","pxobfx9afl8","1389","stimuli/22_0_R.jpg","j","response","j","true"
"","","","","","html-keyboard-response","275","2.0.0","424604","pxobfx9afl8","null","<p style=""border: 5px solid green;"">Correct!</p>","null","","",""
"","","","","","html-keyboard-response","276","2.0.0","425606","pxobfx9afl8","null","<div style=""font-size: 75px;"">+</div>","null","","",""
"","","","","","image-keyboard-response","277","2.0.0","428750","pxobfx9afl8","3142","stimuli/34_100.jpg","f","response","f","true"
"","","","","","html-keyboard-response","278","2.0.0","429253","pxobfx9afl8","null","<p style=""border: 5px solid green;"">Correct!</p>","null","","",""
"","","","","","html-keyboard-response","279","2.0.0","430255","pxobfx9afl8","null","<div style=""font-size: 75px;"">+</div>","null","","",""
"","","","","","image-keyboard-response","280","2.0.0","431256","pxobfx9afl8","999","stimuli/43_0_R.jpg","j","response","j","true"
"","","","","","html-keyboard-response","281","2.0.0","431758","pxobfx9afl8","null","<p style=""border: 5px solid green;"">Correct!</p>","null","","",""
"","","","","","html-keyboard-response","282","2.0.0","432759","pxobfx9afl8","null","<div style=""font-size: 75px;"">+</div>","null","","",""
"","","","","","image-keyboard-response","283","2.0.0","433981","pxobfx9afl8","1219","stimuli/2_0_R.jpg","j","response","j","true"
"","","","","","html-keyboard-response","284","2.0.0","434483","pxobfx9afl8","null","<p style=""border: 5px solid green;"">Correct!</p>","null","","",""
"","","","","","html-keyboard-response","285","2.0.0","435485","pxobfx9afl8","null","<div style=""font-size: 75px;"">+</div>","null","","",""
"","","","","","image-keyboard-response","286","2.0.0","437876","pxobfx9afl8","2389","stimuli/44_100.jpg","f","response","f","true"
"","","","","","html-keyboard-response","287","2.0.0","438379","pxobfx9afl8","null","<p style=""border: 5px solid green;"">Correct!</p>","null","","",""
"","","","","","html-keyboard-response","288","2.0.0","439382","pxobfx9afl8","null","<div style=""font-size: 75px;"">+</div>","null","","",""
"","","","","","image-keyboard-response","289","2.0.0","440614","pxobfx9afl8","1230","stimuli/36_0.jpg","f","response","f","true"
"","","","","","html-keyboard-response","290","2.0.0","441116","pxobfx9afl8","null","<p style=""border: 5px solid green;"">Correct!</p>","null","","",""
"","","","","","html-keyboard-response","291","2.0.0","442119","pxobfx9afl8","null","<div style=""font-size: 75px;"">+</div>","null","","",""
"","","","","","image-keyboard-response","292","2.0.0","443908","pxobfx9afl8","1787","stimuli/6_100_R.jpg","j","response","j","true"
"","","","","","html-keyboard-response","293","2.0.0","444410","pxobfx9afl8","null","<p style=""border: 5px solid green;"">Correct!</p>","null","","",""
"","","","","","html-keyboard-response","294","2.0.0","445659","pxobfx9afl8","1248","<p>Thank you for participating!</p><p>Please press space to answer our survey.</p>"," ","","",""
"","","","","","survey-html-form","295","null","634827","pxobfx9afl8","189163","","{""response_1"":""Moderately clear and lively"",""response_2"":""Moderately clear and lively"",""response_3"":""Moderately clear and lively"",""response_4"":""Dim and vague; flat"",""response_5"":""Moderately clear and lively"",""response_6"":""Clear and lively"",""response_7"":""Clear and lively"",""response_8"":""Clear and lively"",""response_9"":""Moderately clear and lively"",""response_10"":""Dim and vague; flat"",""response_11"":""Dim and vague; flat"",""response_12"":""Moderately clear and lively"",""response_13"":""Moderately clear and lively"",""response_14"":""Moderately clear and lively"",""response_15"":""Moderately clear and lively"",""response_16"":""Moderately clear and lively""}","","",""
"","","","","","survey-html-form","296","null","694793","pxobfx9afl8","59963","","{""age"":""32"",""gender"":""male"",""education"":""some-college"",""handedness"":""left"",""vision"":""corrected"",""technical_difficulties"":""no"",""knowledge_check"":""relationship between reported vividness of \""mind's eye\"" and mental rotation ability""}","","",""
