"success","timeout","failed_images","failed_audio","failed_video","trial_type","trial_index","plugin_version","time_elapsed","random_id","rt","stimulus","response","task","correct_response","correct"
"true","false","[]","[]","[]","preload","0","2.0.0","2899","pxoffsmob58","","","","","",""
"true","","","","","fullscreen","1","2.0.0","4994","pxoffsmob58","1093","","","","",""
"","","","","","html-keyboard-response","2","2.0.0","6333","pxoffsmob58","1338","Welcome to the experiment. Press any key to begin."," ","","",""
"","","","","","survey-text","3","2.0.0","9606","pxoffsmob58","3271","","{""participant_id"":""heron""}","","",""
"","","","","","html-keyboard-response","4","2.0.0","14109","pxoffsmob58","4502","
        <p>Welcome to the experiment.</p>
        <p>In this task, you will see pairs of images.</p>
        <p>Your job is to determine whether the image on the right is a rotated version of the image on the left.</p>
        <p>Press the <strong>F</strong> key if the images are the same.</p>
        <p>Press the <strong>J</strong> key if the images are different.</p>
        <p>Press any key to begin.</p>
    "," ","","",""
"","","","","","html-keyboard-response","5","2.0.0","15114","pxoffsmob58","null","<div style=""font-size: 75px;"">+</div>","null","","",""
"","","","","","image-keyboard-response","6","2.0.0","21400","pxoffsmob58","6284","stimuli/33_100_R.jpg","j","response","j","true"
"","","","","","html-keyboard-response","7","2.0.0","21915","pxoffsmob58","null","<p style=""border: 5px solid green;"">Correct!</p>","null","","",""
"","","","","","html-keyboard-response","8","2.0.0","22931","pxoffsmob58","null","<div style=""font-size: 75px;"">+</div>","null","","",""
"","","","","","image-keyboard-response","9","2.0.0","26112","pxoffsmob58","3180","stimuli/47_50_R.jpg","f","response","j","false"
"","","","","","html-keyboard-response","10","2.0.0","26613","pxoffsmob58","null","<p style=""border: 5px solid red;"">Incorrect.</p>","null","","",""
"","","","","","html-keyboard-response","11","2.0.0","27617","pxoffsmob58","null","<div style=""font-size: 75px;"">+</div>","null","","",""
"","","","","","image-keyboard-response","12","2.0.0","34010","pxoffsmob58","6392","stimuli/37_150.jpg","f","response","f","true"
"","","","","","html-keyboard-response","13","2.0.0","34513","pxoffsmob58","null","<p style=""border: 5px solid green;"">Correct!</p>","null","","",""
"","","","","","html-keyboard-response","14","2.0.0","35524","pxoffsmob58","null","<div style=""font-size: 75px;"">+</div>","null","","",""
"","","","","","image-keyboard-response","15","2.0.0","38492","pxoffsmob58","2967","stimuli/14_150.jpg","j","response","f","false"
"","","","","","html-keyboard-response","16","2.0.0","38994","pxoffsmob58","null","<p style=""border: 5px solid red;"">Incorrect.</p>","null","","",""
"","","","","","html-keyboard-response","17","2.0.0","40008","pxoffsmob58","null","<div style=""font-size: 75px;"">+</div>","null","","",""
"","","","","","image-keyboard-response","18","2.0.0","45674","pxoffsmob58","5665","stimuli/40_150.jpg","f","response","f","true"
"","","","","","html-keyboard-response","19","2.0.0","46181","pxoffsmob58","null","<p style=""border: 5px solid green;"">Correct!</p>","null","","",""
"","","","","","html-keyboard-response","20","2.0.0","47188","pxoffsmob58","null","<div style=""font-size: 75px;"">+</div>","null","","",""
"","","","","","image-keyboard-response","21","2.0.0","51587","pxoffsmob58","4399","stimuli/16_150_R.jpg","j","response","j","true"
"","","","","","html-keyboard-response","22","2.0.0","52099","pxoffsmob58","null","<p style=""border: 5px solid green;"">Correct!</p>","null","","",""
"","","","","","html-keyboard-response","23","2.0.0","53114","pxoffsmob58","null","<div style=""font-size: 75px;"">+</div>","null","","",""
"","","","","","image-keyboard-response","24","2.0.0","56759","pxoffsmob58","3644","stimuli/36_100.jpg","f","response","f","true"
"","","","","","html-keyboard-response","25","2.0.0","57272","pxoffsmob58","null","<p style=""border: 5px solid green;"">Correct!</p>","null","","",""
"","","","","","html-keyboard-response","26","2.0.0","58288","pxoffsmob58","null","<div style=""font-size: 75px;"">+</div>","null","","",""
"","","","","","image-keyboard-response","27","2.0.0","60938","pxoffsmob58","2649","stimuli/10_0.jpg","f","response","f","true"
"","","","","","html-keyboard-response","28","2.0.0","61439","pxoffsmob58","null","<p style=""border: 5px solid green;"">Correct!</p>","null","","",""
"","","","","","html-keyboard-response","29","2.0.0","62453","pxoffsmob58","null","<div style=""font-size: 75px;"">+</div>","null","","",""
"","","","","","image-keyboard-response","30","2.0.0","64448","pxoffsmob58","1993","stimuli/9_0_R.jpg","j","response","j","true"
"","","","","","html-keyboard-response","31","2.0.0","64958","pxoffsmob58","null","<p style=""border: 5px solid green;"">Correct!</p>","null","","",""
"","","","","","html-keyboard-response","32","2.0.0","65971","pxoffsmob58","null","<div style=""font-size: 75px;"">+</div>","null","","",""
"","","","","","image-keyboard-response","33","2.0.0","68849","pxoffsmob58","2877","stimuli/28_100_R.jpg","j","response","j","true"
"","","","","","html-keyboard-response","34","2.0.0","69358","pxoffsmob58","null","<p style=""border: 5px solid green;"">Correct!</p>","null","","",""
"","","","","","html-keyboard-response","35","2.0.0","70361","pxoffsmob58","null","<div style=""font-size: 75px;"">+</div>","null","","",""
"","","","","","image-keyboard-response","36","2.0.0","72379","pxoffsmob58","2017","stimuli/12_100.jpg","f","response","f","true"
"","","","","","html-keyboard-response","37","2.0.0","72889","pxoffsmob58","null","<p style=""border: 5px solid green;"">Correct!</p>","null","","",""
"","","","","","html-keyboard-response","38","2.0.0","73903","pxoffsmob58","null","<div style=""font-size: 75px;"">+</div>","null","","",""
"","","","","","image-keyboard-response","39","2.0.0","75877","pxoffsmob58","1973","stimuli/4_50_R.jpg","j","response","j","true"
"","","","","","html-keyboard-response","40","2.0.0","76387","pxoffsmob58","null","<p style=""border: 5px solid green;"">Correct!</p>","null","","",""
"","","","","","html-keyboard-response","41","2.0.0","77398","pxoffsmob58","null","<div style=""font-size: 75px;"">+</div>","null","","",""
"","","","","","image-keyboard-response","42","2.0.0","79642","pxoffsmob58","2244","stimuli/17_100.jpg","j","response","f","false"
"","","","","","html-keyboard-response","43","2.0.0","80146","pxoffsmob58","null","<p style=""border: 5px solid red;"">Incorrect.</p>","null","","",""
"","","","","","html-keyboard-response","44","2.0.0","81161","pxoffsmob58","null","<div style=""font-size: 75px;"">+</div>","null","","",""
"","","","","","image-keyboard-response","45","2.0.0","82417","pxoffsmob58","1255","stimuli/43_0.jpg","f","response","f","true"
"","","","","","html-keyboard-response","46","2.0.0","82924","pxoffsmob58","null","<p style=""border: 5px solid green;"">Correct!</p>","null","","",""
"","","","","","html-keyboard-response","47","2.0.0","83936","pxoffsmob58","null","<div style=""font-size: 75px;"">+</div>","null","","",""
"","","","","","image-keyboard-response","48","2.0.0","86811","pxoffsmob58","2874","stimuli/40_50.jpg","f","response","f","true"
"","","","","","html-keyboard-response","49","2.0.0","87321","pxoffsmob58","null","<p style=""border: 5px solid green;"">Correct!</p>","null","","",""
"","","","","","html-keyboard-response","50","2.0.0","88330","pxoffsmob58","null","<div style=""font-size: 75px;"">+</div>","null","","",""
"","","","","","image-keyboard-response","51","2.0.0","92488","pxoffsmob58","4158","stimuli/4_100.jpg","f","response","f","true"
"","","","","","html-keyboard-response","52","2.0.0","93002","pxoffsmob58","null","<p style=""border: 5px solid green;"">Correct!</p>","null","","",""
"","","","","","html-keyboard-response","53","2.0.0","94011","pxoffsmob58","null","<div style=""font-size: 75px;"">+</div>","null","","",""
"","","","","","image-keyboard-response","54","2.0.0","96451","pxoffsmob58","2439","stimuli/17_50.jpg","f","response","f","true"
"","","","","","html-keyboard-response","55","2.0.0","96967","pxoffsmob58","null","<p style=""border: 5px solid green;"">Correct!</p>","null","","",""
"","","","","","html-keyboard-response","56","2.0.0","97970","pxoffsmob58","null","<div style=""font-size: 75px;"">+</div>","null","","",""
"","","","","","image-keyboard-response","57","2.0.0","100650","pxoffsmob58","2680","stimuli/46_100.jpg","f","response","f","true"
"","","","","","html-keyboard-response","58","2.0.0","101164","pxoffsmob58","null","<p style=""border: 5px solid green;"">Correct!</p>","null","","",""
"","","","","","html-keyboard-response","59","2.0.0","102178","pxoffsmob58","null","<div style=""font-size: 75px;"">+</div>","null","","",""
"","","","","","image-keyboard-response","60","2.0.0","103924","pxoffsmob58","1745","stimuli/34_0_R.jpg","j","response","j","true"
"","","","","","html-keyboard-response","61","2.0.0","104425","pxoffsmob58","null","<p style=""border: 5px solid green;"">Correct!</p>","null","","",""
"","","","","","html-keyboard-response","62","2.0.0","105426","pxoffsmob58","null","<div style=""font-size: 75px;"">+</div>","null","","",""
"","","","","","image-keyboard-response","63","2.0.0","107771","pxoffsmob58","2345","stimuli/47_0_R.jpg","j","response","j","true"
"","","","","","html-keyboard-response","64","2.0.0","108280","pxoffsmob58","null","<p style=""border: 5px solid green;"">Correct!</p>","null","","",""
"","","","","","html-keyboard-response","65","2.0.0","109293","pxoffsmob58","null","<div style=""font-size: 75px;"">+</div>","null","","",""
"","","","","","image-keyboard-response","66","2.0.0","111348","pxoffsmob58","2054","stimuli/30_100.jpg","j","response","f","false"
"","","","","","html-keyboard-response","67","2.0.0","111851","pxoffsmob58","null","<p style=""border: 5px solid red;"">Incorrect.</p>","null","","",""
"","","","","","html-keyboard-response","68","2.0.0","112866","pxoffsmob58","null","<div style=""font-size: 75px;"">+</div>","null","","",""
"","","","","","image-keyboard-response","69","2.0.0","114070","pxoffsmob58","1203","stimuli/6_50_R.jpg","j","response","j","true"
"","","","","","html-keyboard-response","70","2.0.0","114585","pxoffsmob58","null","<p style=""border: 5px solid green;"">Correct!</p>","null","","",""
"","","","","","html-keyboard-response","71","2.0.0","115587","pxoffsmob58","null","<div style=""font-size: 75px;"">+</div>","null","","",""
"","","","","","image-keyboard-response","72","2.0.0","118148","pxoffsmob58","2560","stimuli/23_100.jpg","f","response","f","true"
"","","","","","html-keyboard-response","73","2.0.0","118661","pxoffsmob58","null","<p style=""border: 5px solid green;"">Correct!</p>","null","","",""
"","","","","","html-keyboard-response","74","2.0.0","119673","pxoffsmob58","null","<div style=""font-size: 75px;"">+</div>","null","","",""
"","","","","","image-keyboard-response","75","2.0.0","122130","pxoffsmob58","2456","stimuli/47_100_R.jpg","j","response","j","true"
"","","","","","html-keyboard-response","76","2.0.0","122638","pxoffsmob58","null","<p style=""border: 5px solid green;"">Correct!</p>","null","","",""
"","","","","","html-keyboard-response","77","2.0.0","123652","pxoffsmob58","null","<div style=""font-size: 75px;"">+</div>","null","","",""
"","","","","","image-keyboard-response","78","2.0.0","126565","pxoffsmob58","2913","stimuli/30_150_R.jpg","j","response","j","true"
"","","","","","html-keyboard-response","79","2.0.0","127068","pxoffsmob58","null","<p style=""border: 5px solid green;"">Correct!</p>","null","","",""
"","","","","","html-keyboard-response","80","2.0.0","128079","pxoffsmob58","null","<div style=""font-size: 75px;"">+</div>","null","","",""
"","","","","","image-keyboard-response","81","2.0.0","132472","pxoffsmob58","4392","stimuli/7_50_R.jpg","j","response","j","true"
"","","","","","html-keyboard-response","82","2.0.0","132975","pxoffsmob58","null","<p style=""border: 5px solid green;"">Correct!</p>","null","","",""
"","","","","","html-keyboard-response","83","2.0.0","133977","pxoffsmob58","null","<div style=""font-size: 75px;"">+</div>","null","","",""
"","","","","","image-keyboard-response","84","2.0.0","135611","pxoffsmob58","1633","stimuli/37_100_R.jpg","f","response","j","false"
"","","","","","html-keyboard-response","85","2.0.0","136114","pxoffsmob58","null","<p style=""border: 5px solid red;"">Incorrect.</p>","null","","",""
"","","","","","html-keyboard-response","86","2.0.0","137125","pxoffsmob58","null","<div style=""font-size: 75px;"">+</div>","null","","",""
"","","","","","image-keyboard-response","87","2.0.0","139283","pxoffsmob58","2158","stimuli/39_0.jpg","f","response","f","true"
"","","","","","html-keyboard-response","88","2.0.0","139795","pxoffsmob58","null","<p style=""border: 5px solid green;"">Correct!</p>","null","","",""
"","","","","","html-keyboard-response","89","2.0.0","140810","pxoffsmob58","null","<div style=""font-size: 75px;"">+</div>","null","","",""
"","","","","","image-keyboard-response","90","2.0.0","142820","pxoffsmob58","2010","stimuli/44_50_R.jpg","f","response","j","false"
"","","","","","html-keyboard-response","91","2.0.0","143333","pxoffsmob58","null","<p style=""border: 5px solid red;"">Incorrect.</p>","null","","",""
"","","","","","html-keyboard-response","92","2.0.0","144344","pxoffsmob58","null","<div style=""font-size: 75px;"">+</div>","null","","",""
"","","","","","image-keyboard-response","93","2.0.0","146722","pxoffsmob58","2378","stimuli/20_150.jpg","j","response","f","false"
"","","","","","html-keyboard-response","94","2.0.0","147231","pxoffsmob58","null","<p style=""border: 5px solid red;"">Incorrect.</p>","null","","",""
"","","","","","html-keyboard-response","95","2.0.0","148246","pxoffsmob58","null","<div style=""font-size: 75px;"">+</div>","null","","",""
"","","","","","image-keyboard-response","96","2.0.0","149996","pxoffsmob58","1750","stimuli/16_50.jpg","f","response","f","true"
"","","","","","html-keyboard-response","97","2.0.0","150511","pxoffsmob58","null","<p style=""border: 5px solid green;"">Correct!</p>","null","","",""
"","","","","","html-keyboard-response","98","2.0.0","151523","pxoffsmob58","null","<div style=""font-size: 75px;"">+</div>","null","","",""
"","","","","","image-keyboard-response","99","2.0.0","155417","pxoffsmob58","3893","stimuli/38_0_R.jpg","j","response","j","true"
"","","","","","html-keyboard-response","100","2.0.0","155921","pxoffsmob58","null","<p style=""border: 5px solid green;"">Correct!</p>","null","","",""
"","","","","","html-keyboard-response","101","2.0.0","156935","pxoffsmob58","null","<div style=""font-size: 75px;"">+</div>","null","","",""
"","","","","","image-keyboard-response","102","2.0.0","158137","pxoffsmob58","1201","stimuli/43_50_R.jpg","j","response","j","true"
"","","","","","html-keyboard-response","103","2.0.0","158647","pxoffsmob58","null","<p style=""border: 5px solid green;"">Correct!</p>","null","","",""
"","","","","","html-keyboard-response","104","2.0.0","159659","pxoffsmob58","null","<div style=""font-size: 75px;"">+</div>","null","","",""
"","","","","","image-keyboard-response","105","2.0.0","162235","pxoffsmob58","2575","stimuli/10_50_R.jpg","j","response","j","true"
"","","","","","html-keyboard-response","106","2.0.0","162736","pxoffsmob58","null","<p style=""border: 5px solid green;"">Correct!</p>","null","","",""
"","","","","","html-keyboard-response","107","2.0.0","163739","pxoffsmob58","null","<div style=""font-size: 75px;"">+</div>","null","","",""
"","","","","","image-keyboard-response","108","2.0.0","165751","pxoffsmob58","2011","stimuli/36_0_R.jpg","j","response","j","true"
"","","","","","html-keyboard-response","109","2.0.0","166258","pxoffsmob58","null","<p style=""border: 5px solid green;"">Correct!</p>","null","","",""
"","","","","","html-keyboard-response","110","2.0.0","167274","pxoffsmob58","null","<div style=""font-size: 75px;"">+</div>","null","","",""
"","","","","","image-keyboard-response","111","2.0.0","168607","pxoffsmob58","1332","stimuli/1_100_R.jpg","j","response","j","true"
"","","","","","html-keyboard-response","112","2.0.0","169115","pxoffsmob58","null","<p style=""border: 5px solid green;"">Correct!</p>","null","","",""
"","","","","","html-keyboard-response","113","2.0.0","170127","pxoffsmob58","null","<div style=""font-size: 75px;"">+</div>","null","","",""
"","","","","","image-keyboard-response","114","2.0.0","170882","pxoffsmob58","754","stimuli/21_0.jpg","f","response","f","true"
"","","","","","html-keyboard-response","115","2.0.0","171388","pxoffsmob58","null","<p style=""border: 5px solid green;"">Correct!</p>","null","","",""
"","","","","","html-keyboard-response","116","2.0.0","172400","pxoffsmob58","null","<div style=""font-size: 75px;"">+</div>","null","","",""
"","","","","","image-keyboard-response","117","2.0.0","173514","pxoffsmob58","1113","stimuli/32_50.jpg","f","response","f","true"
"","","","","","html-keyboard-response","118","2.0.0","174024","pxoffsmob58","null","<p style=""border: 5px solid green;"">Correct!</p>","null","","",""
"","","","","","html-keyboard-response","119","2.0.0","175032","pxoffsmob58","null","<div style=""font-size: 75px;"">+</div>","null","","",""
"","","","","","image-keyboard-response","120","2.0.0","178091","pxoffsmob58","3058","stimuli/48_100.jpg","j","response","f","false"
"","","","","","html-keyboard-response","121","2.0.0","178596","pxoffsmob58","null","<p style=""border: 5px solid red;"">Incorrect.</p>","null","","",""
"","","","","","html-keyboard-response","122","2.0.0","179609","pxoffsmob58","null","<div style=""font-size: 75px;"">+</div>","null","","",""
"","","","","","image-keyboard-response","123","2.0.0","194736","pxoffsmob58","15127","stimuli/30_0_R.jpg","j","response","j","true"
"","","","","","html-keyboard-response","124","2.0.0","195238","pxoffsmob58","null","<p style=""border: 5px solid green;"">Correct!</p>","null","","",""
"","","","","","html-keyboard-response","125","2.0.0","196250","pxoffsmob58","null","<div style=""font-size: 75px;"">+</div>","null","","",""
"","","","","","image-keyboard-response","126","2.0.0","198921","pxoffsmob58","2671","stimuli/20_100_R.jpg","j","response","j","true"
"","","","","","html-keyboard-response","127","2.0.0","199433","pxoffsmob58","null","<p style=""border: 5px solid green;"">Correct!</p>","null","","",""
"","","","","","html-keyboard-response","128","2.0.0","200446","pxoffsmob58","null","<div style=""font-size: 75px;"">+</div>","null","","",""
"","","","","","image-keyboard-response","129","2.0.0","204005","pxoffsmob58","3559","stimuli/13_150_R.jpg","f","response","j","false"
"","","","","","html-keyboard-response","130","2.0.0","204519","pxoffsmob58","null","<p style=""border: 5px solid red;"">Incorrect.</p>","null","","",""
"","","","","","html-keyboard-response","131","2.0.0","205534","pxoffsmob58","null","<div style=""font-size: 75px;"">+</div>","null","","",""
"","","","","","image-keyboard-response","132","2.0.0","206875","pxoffsmob58","1340","stimuli/15_100_R.jpg","j","response","j","true"
"","","","","","html-keyboard-response","133","2.0.0","207389","pxoffsmob58","null","<p style=""border: 5px solid green;"">Correct!</p>","null","","",""
"","","","","","html-keyboard-response","134","2.0.0","208398","pxoffsmob58","null","<div style=""font-size: 75px;"">+</div>","null","","",""
"","","","","","image-keyboard-response","135","2.0.0","209481","pxoffsmob58","1081","stimuli/9_50.jpg","f","response","f","true"
"","","","","","html-keyboard-response","136","2.0.0","209992","pxoffsmob58","null","<p style=""border: 5px solid green;"">Correct!</p>","null","","",""
"","","","","","html-keyboard-response","137","2.0.0","210994","pxoffsmob58","null","<div style=""font-size: 75px;"">+</div>","null","","",""
"","","","","","image-keyboard-response","138","2.0.0","212031","pxoffsmob58","1037","stimuli/5_0.jpg","f","response","f","true"
"","","","","","html-keyboard-response","139","2.0.0","212534","pxoffsmob58","null","<p style=""border: 5px solid green;"">Correct!</p>","null","","",""
"","","","","","html-keyboard-response","140","2.0.0","213548","pxoffsmob58","null","<div style=""font-size: 75px;"">+</div>","null","","",""
"","","","","","image-keyboard-response","141","2.0.0","214942","pxoffsmob58","1393","stimuli/46_50.jpg","j","response","f","false"
"","","","","","html-keyboard-response","142","2.0.0","215455","pxoffsmob58","null","<p style=""border: 5px solid red;"">Incorrect.</p>","null","","",""
"","","","","","html-keyboard-response","143","2.0.0","216466","pxoffsmob58","null","<div style=""font-size: 75px;"">+</div>","null","","",""
"","","","","","image-keyboard-response","144","2.0.0","219471","pxoffsmob58","3004","stimuli/16_100_R.jpg","j","response","j","true"
"","","","","","html-keyboard-response","145","2.0.0","219986","pxoffsmob58","null","<p style=""border: 5px solid green;"">Correct!</p>","null","","",""
"","","","","","html-keyboard-response","146","2.0.0","221001","pxoffsmob58","null","<div style=""font-size: 75px;"">+</div>","null","","",""
"","","","","","image-keyboard-response","147","2.0.0","224953","pxoffsmob58","3951","stimuli/1_50_R.jpg","j","response","j","true"
"","","","","","html-keyboard-response","148","2.0.0","225460","pxoffsmob58","null","<p style=""border: 5px solid green;"">Correct!</p>","null","","",""
"","","","","","html-keyboard-response","149","2.0.0","255463","pxoffsmob58","null","<p> Take a break! Experiment continues in 30 seconds . </p>","null","","",""
"","","","","","html-keyboard-response","150","2.0.0","256477","pxoffsmob58","null","<div style=""font-size: 75px;"">+</div>","null","","",""
"","","","","","image-keyboard-response","151","2.0.0","259119","pxoffsmob58","2641","stimuli/7_0.jpg","f","response","f","true"
"","","","","","html-keyboard-response","152","2.0.0","259629","pxoffsmob58","null","<p style=""border: 5px solid green;"">Correct!</p>","null","","",""
"","","","","","html-keyboard-response","153","2.0.0","260641","pxoffsmob58","null","<div style=""font-size: 75px;"">+</div>","null","","",""
"","","","","","image-keyboard-response","154","2.0.0","264229","pxoffsmob58","3586","stimuli/15_150.jpg","j","response","f","false"
"","","","","","html-keyboard-response","155","2.0.0","264738","pxoffsmob58","null","<p style=""border: 5px solid red;"">Incorrect.</p>","null","","",""
"","","","","","html-keyboard-response","156","2.0.0","265753","pxoffsmob58","null","<div style=""font-size: 75px;"">+</div>","null","","",""
"","","","","","image-keyboard-response","157","2.0.0","267334","pxoffsmob58","1580","stimuli/33_0.jpg","f","response","f","true"
"","","","","","html-keyboard-response","158","2.0.0","267843","pxoffsmob58","null","<p style=""border: 5px solid green;"">Correct!</p>","null","","",""
"","","","","","html-keyboard-response","159","2.0.0","268858","pxoffsmob58","null","<div style=""font-size: 75px;"">+</div>","null","","",""
"","","","","","image-keyboard-response","160","2.0.0","270797","pxoffsmob58","1938","stimuli/19_150.jpg","j","response","f","false"
"","","","","","html-keyboard-response","161","2.0.0","271305","pxoffsmob58","null","<p style=""border: 5px solid red;"">Incorrect.</p>","null","","",""
"","","","","","html-keyboard-response","162","2.0.0","272321","pxoffsmob58","null","<div style=""font-size: 75px;"">+</div>","null","","",""
"","","","","","image-keyboard-response","163","2.0.0","273558","pxoffsmob58","1236","stimuli/15_0_R.jpg","j","response","j","true"
"","","","","","html-keyboard-response","164","2.0.0","274070","pxoffsmob58","null","<p style=""border: 5px solid green;"">Correct!</p>","null","","",""
"","","","","","html-keyboard-response","165","2.0.0","275083","pxoffsmob58","null","<div style=""font-size: 75px;"">+</div>","null","","",""
"","","","","","image-keyboard-response","166","2.0.0","277662","pxoffsmob58","2578","stimuli/20_150_R.jpg","j","response","j","true"
"","","","","","html-keyboard-response","167","2.0.0","278175","pxoffsmob58","null","<p style=""border: 5px solid green;"">Correct!</p>","null","","",""
"","","","","","html-keyboard-response","168","2.0.0","279187","pxoffsmob58","null","<div style=""font-size: 75px;"">+</div>","null","","",""
"","","","","","image-keyboard-response","169","2.0.0","280605","pxoffsmob58","1417","stimuli/3_0.jpg","f","response","f","true"
"","","","","","html-keyboard-response","170","2.0.0","281113","pxoffsmob58","null","<p style=""border: 5px solid green;"">Correct!</p>","null","","",""
"","","","","","html-keyboard-response","171","2.0.0","282128","pxoffsmob58","null","<div style=""font-size: 75px;"">+</div>","null","","",""
"","","","","","image-keyboard-response","172","2.0.0","303597","pxoffsmob58","21469","stimuli/24_150.jpg","j","response","f","false"
"","","","","","html-keyboard-response","173","2.0.0","304111","pxoffsmob58","null","<p style=""border: 5px solid red;"">Incorrect.</p>","null","","",""
"","","","","","html-keyboard-response","174","2.0.0","305126","pxoffsmob58","null","<div style=""font-size: 75px;"">+</div>","null","","",""
"","","","","","image-keyboard-response","175","2.0.0","307215","pxoffsmob58","2089","stimuli/10_150_R.jpg","f","response","j","false"
"","","","","","html-keyboard-response","176","2.0.0","307717","pxoffsmob58","null","<p style=""border: 5px solid red;"">Incorrect.</p>","null","","",""
"","","","","","html-keyboard-response","177","2.0.0","308726","pxoffsmob58","null","<div style=""font-size: 75px;"">+</div>","null","","",""
"","","","","","image-keyboard-response","178","2.0.0","310929","pxoffsmob58","2201","stimuli/8_150_R.jpg","j","response","j","true"
"","","","","","html-keyboard-response","179","2.0.0","311437","pxoffsmob58","null","<p style=""border: 5px solid green;"">Correct!</p>","null","","",""
"","","","","","html-keyboard-response","180","2.0.0","312441","pxoffsmob58","null","<div style=""font-size: 75px;"">+</div>","null","","",""
"","","","","","image-keyboard-response","181","2.0.0","314303","pxoffsmob58","1861","stimuli/26_150.jpg","f","response","f","true"
"","","","","","html-keyboard-response","182","2.0.0","314807","pxoffsmob58","null","<p style=""border: 5px solid green;"">Correct!</p>","null","","",""
"","","","","","html-keyboard-response","183","2.0.0","315813","pxoffsmob58","null","<div style=""font-size: 75px;"">+</div>","null","","",""
"","","","","","image-keyboard-response","184","2.0.0","319022","pxoffsmob58","3208","stimuli/42_0_R.jpg","j","response","j","true"
"","","","","","html-keyboard-response","185","2.0.0","319532","pxoffsmob58","null","<p style=""border: 5px solid green;"">Correct!</p>","null","","",""
"","","","","","html-keyboard-response","186","2.0.0","320546","pxoffsmob58","null","<div style=""font-size: 75px;"">+</div>","null","","",""
"","","","","","image-keyboard-response","187","2.0.0","323511","pxoffsmob58","2964","stimuli/35_50_R.jpg","f","response","j","false"
"","","","","","html-keyboard-response","188","2.0.0","324023","pxoffsmob58","null","<p style=""border: 5px solid red;"">Incorrect.</p>","null","","",""
"","","","","","html-keyboard-response","189","2.0.0","325037","pxoffsmob58","null","<div style=""font-size: 75px;"">+</div>","null","","",""
"","","","","","image-keyboard-response","190","2.0.0","329532","pxoffsmob58","4495","stimuli/7_150_R.jpg","j","response","j","true"
"","","","","","html-keyboard-response","191","2.0.0","330045","pxoffsmob58","null","<p style=""border: 5px solid green;"">Correct!</p>","null","","",""
"","","","","","html-keyboard-response","192","2.0.0","331057","pxoffsmob58","null","<div style=""font-size: 75px;"">+</div>","null","","",""
"","","","","","image-keyboard-response","193","2.0.0","333055","pxoffsmob58","1997","stimuli/28_0_R.jpg","j","response","j","true"
"","","","","","html-keyboard-response","194","2.0.0","333556","pxoffsmob58","null","<p style=""border: 5px solid green;"">Correct!</p>","null","","",""
"","","","","","html-keyboard-response","195","2.0.0","334566","pxoffsmob58","null","<div style=""font-size: 75px;"">+</div>","null","","",""
"","","","","","image-keyboard-response","196","2.0.0","344977","pxoffsmob58","10411","stimuli/39_0_R.jpg","f","response","j","false"
"","","","","","html-keyboard-response","197","2.0.0","345491","pxoffsmob58","null","<p style=""border: 5px solid red;"">Incorrect.</p>","null","","",""
"","","","","","html-keyboard-response","198","2.0.0","346502","pxoffsmob58","null","<div style=""font-size: 75px;"">+</div>","null","","",""
"","","","","","image-keyboard-response","199","2.0.0","348507","pxoffsmob58","2004","stimuli/23_0_R.jpg","j","response","j","true"
"","","","","","html-keyboard-response","200","2.0.0","349016","pxoffsmob58","null","<p style=""border: 5px solid green;"">Correct!</p>","null","","",""
"","","","","","html-keyboard-response","201","2.0.0","350027","pxoffsmob58","null","<div style=""font-size: 75px;"">+</div>","null","","",""
"","","","","","image-keyboard-response","202","2.0.0","351572","pxoffsmob58","1545","stimuli/2_50.jpg","f","response","f","true"
"","","","","","html-keyboard-response","203","2.0.0","352083","pxoffsmob58","null","<p style=""border: 5px solid green;"">Correct!</p>","null","","",""
"","","","","","html-keyboard-response","204","2.0.0","353098","pxoffsmob58","null","<div style=""font-size: 75px;"">+</div>","null","","",""
"","","","","","image-keyboard-response","205","2.0.0","358472","pxoffsmob58","5373","stimuli/27_50_R.jpg","f","response","j","false"
"","","","","","html-keyboard-response","206","2.0.0","358973","pxoffsmob58","null","<p style=""border: 5px solid red;"">Incorrect.</p>","null","","",""
"","","","","","html-keyboard-response","207","2.0.0","359986","pxoffsmob58","null","<div style=""font-size: 75px;"">+</div>","null","","",""
"","","","","","image-keyboard-response","208","2.0.0","362165","pxoffsmob58","2178","stimuli/8_100_R.jpg","j","response","j","true"
"","","","","","html-keyboard-response","209","2.0.0","362666","pxoffsmob58","null","<p style=""border: 5px solid green;"">Correct!</p>","null","","",""
"","","","","","html-keyboard-response","210","2.0.0","363680","pxoffsmob58","null","<div style=""font-size: 75px;"">+</div>","null","","",""
"","","","","","image-keyboard-response","211","2.0.0","364872","pxoffsmob58","1191","stimuli/1_100.jpg","j","response","f","false"
"","","","","","html-keyboard-response","212","2.0.0","365375","pxoffsmob58","null","<p style=""border: 5px solid red;"">Incorrect.</p>","null","","",""
"","","","","","html-keyboard-response","213","2.0.0","366390","pxoffsmob58","null","<div style=""font-size: 75px;"">+</div>","null","","",""
"","","","","","image-keyboard-response","214","2.0.0","367167","pxoffsmob58","775","stimuli/23_50.jpg","f","response","f","true"
"","","","","","html-keyboard-response","215","2.0.0","367668","pxoffsmob58","null","<p style=""border: 5px solid green;"">Correct!</p>","null","","",""
"","","","","","html-keyboard-response","216","2.0.0","368683","pxoffsmob58","null","<div style=""font-size: 75px;"">+</div>","null","","",""
"","","","","","image-keyboard-response","217","2.0.0","369577","pxoffsmob58","894","stimuli/1_150.jpg","f","response","f","true"
"","","","","","html-keyboard-response","218","2.0.0","370091","pxoffsmob58","null","<p style=""border: 5px solid green;"">Correct!</p>","null","","",""
"","","","","","html-keyboard-response","219","2.0.0","371104","pxoffsmob58","null","<div style=""font-size: 75px;"">+</div>","null","","",""
"","","","","","image-keyboard-response","220","2.0.0","372135","pxoffsmob58","1030","stimuli/23_150.jpg","j","response","f","false"
"","","","","","html-keyboard-response","221","2.0.0","372648","pxoffsmob58","null","<p style=""border: 5px solid red;"">Incorrect.</p>","null","","",""
"","","","","","html-keyboard-response","222","2.0.0","373662","pxoffsmob58","null","<div style=""font-size: 75px;"">+</div>","null","","",""
"","","","","","image-keyboard-response","223","2.0.0","374417","pxoffsmob58","754","stimuli/29_150_R.jpg","j","response","j","true"
"","","","","","html-keyboard-response","224","2.0.0","374925","pxoffsmob58","null","<p style=""border: 5px solid green;"">Correct!</p>","null","","",""
"","","","","","html-keyboard-response","225","2.0.0","375938","pxoffsmob58","null","<div style=""font-size: 75px;"">+</div>","null","","",""
"","","","","","image-keyboard-response","226","2.0.0","376577","pxoffsmob58","638","stimuli/13_0.jpg","f","response","f","true"
"","","","","","html-keyboard-response","227","2.0.0","377089","pxoffsmob58","null","<p style=""border: 5px solid green;"">Correct!</p>","null","","",""
"","","","","","html-keyboard-response","228","2.0.0","378104","pxoffsmob58","null","<div style=""font-size: 75px;"">+</div>","null","","",""
"","","","","","image-keyboard-response","229","2.0.0","379297","pxoffsmob58","1192","stimuli/48_150.jpg","f","response","f","true"
"","","","","","html-keyboard-response","230","2.0.0","379800","pxoffsmob58","null","<p style=""border: 5px solid green;"">Correct!</p>","null","","",""
"","","","","","html-keyboard-response","231","2.0.0","380815","pxoffsmob58","null","<div style=""font-size: 75px;"">+</div>","null","","",""
"","","","","","image-keyboard-response","232","2.0.0","383739","pxoffsmob58","2923","stimuli/47_150_R.jpg","j","response","j","true"
"","","","","","html-keyboard-response","233","2.0.0","384255","pxoffsmob58","null","<p style=""border: 5px solid green;"">Correct!</p>","null","","",""
"","","","","","html-keyboard-response","234","2.0.0","385266","pxoffsmob58","null","<div style=""font-size: 75px;"">+</div>","null","","",""
"","","","","","image-keyboard-response","235","2.0.0","386446","pxoffsmob58","1179","stimuli/42_0.jpg","f","response","f","true"
"","","","","","html-keyboard-response","236","2.0.0","386952","pxoffsmob58","null","<p style=""border: 5px solid green;"">Correct!</p>","null","","",""
"","","","","","html-keyboard-response","237","2.0.0","387965","pxoffsmob58","null","<div style=""font-size: 75px;"">+</div>","null","","",""
"","","","","","image-keyboard-response","238","2.0.0","389288","pxoffsmob58","1323","stimuli/35_150_R.jpg","j","response","j","true"
"","","","","","html-keyboard-response","239","2.0.0","389790","pxoffsmob58","null","<p style=""border: 5px solid green;"">Correct!</p>","null","","",""
"","","","","","html-keyboard-response","240","2.0.0","390805","pxoffsmob58","null","<div style=""font-size: 75px;"">+</div>","null","","",""
"","","","","","image-keyboard-response","241","2.0.0","392900","pxoffsmob58","2095","stimuli/5_50_R.jpg","f","response","j","false"
"","","","","","html-keyboard-response","242","2.0.0","393411","pxoffsmob58","null","<p style=""border: 5px solid red;"">Incorrect.</p>","null","","",""
"","","","","","html-keyboard-response","243","2.0.0","394422","pxoffsmob58","null","<div style=""font-size: 75px;"">+</div>","null","","",""
"","","","","","image-keyboard-response","244","2.0.0","395363","pxoffsmob58","941","stimuli/36_50_R.jpg","f","response","j","false"
"","","","","","html-keyboard-response","245","2.0.0","395876","pxoffsmob58","null","<p style=""border: 5px solid red;"">Incorrect.</p>","null","","",""
"","","","","","html-keyboard-response","246","2.0.0","396889","pxoffsmob58","null","<div style=""font-size: 75px;"">+</div>","null","","",""
"","","","","","image-keyboard-response","247","2.0.0","398725","pxoffsmob58","1836","stimuli/4_0.jpg","f","response","f","true"
"","","","","","html-keyboard-response","248","2.0.0","399228","pxoffsmob58","null","<p style=""border: 5px solid green;"">Correct!</p>","null","","",""
"","","","","","html-keyboard-response","249","2.0.0","400244","pxoffsmob58","null","<div style=""font-size: 75px;"">+</div>","null","","",""
"","","","","","image-keyboard-response","250","2.0.0","401182","pxoffsmob58","938","stimuli/38_150.jpg","f","response","f","true"
"","","","","","html-keyboard-response","251","2.0.0","401693","pxoffsmob58","null","<p style=""border: 5px solid green;"">Correct!</p>","null","","",""
"","","","","","html-keyboard-response","252","2.0.0","402699","pxoffsmob58","null","<div style=""font-size: 75px;"">+</div>","null","","",""
"","","","","","image-keyboard-response","253","2.0.0","403660","pxoffsmob58","961","stimuli/9_100_R.jpg","f","response","j","false"
"","","","","","html-keyboard-response","254","2.0.0","404166","pxoffsmob58","null","<p style=""border: 5px solid red;"">Incorrect.</p>","null","","",""
"","","","","","html-keyboard-response","255","2.0.0","405181","pxoffsmob58","null","<div style=""font-size: 75px;"">+</div>","null","","",""
"","","","","","image-keyboard-response","256","2.0.0","405942","pxoffsmob58","760","stimuli/37_50.jpg","f","response","f","true"
"","","","","","html-keyboard-response","257","2.0.0","406448","pxoffsmob58","null","<p style=""border: 5px solid green;"">Correct!</p>","null","","",""
"","","","","","html-keyboard-response","258","2.0.0","407459","pxoffsmob58","null","<div style=""font-size: 75px;"">+</div>","null","","",""
"","","","","","image-keyboard-response","259","2.0.0","408277","pxoffsmob58","817","stimuli/18_150_R.jpg","f","response","j","false"
"","","","","","html-keyboard-response","260","2.0.0","408785","pxoffsmob58","null","<p style=""border: 5px solid red;"">Incorrect.</p>","null","","",""
"","","","","","html-keyboard-response","261","2.0.0","409791","pxoffsmob58","null","<div style=""font-size: 75px;"">+</div>","null","","",""
"","","","","","image-keyboard-response","262","2.0.0","410533","pxoffsmob58","742","stimuli/6_0.jpg","f","response","f","true"
"","","","","","html-keyboard-response","263","2.0.0","411040","pxoffsmob58","null","<p style=""border: 5px solid green;"">Correct!</p>","null","","",""
"","","","","","html-keyboard-response","264","2.0.0","412055","pxoffsmob58","null","<div style=""font-size: 75px;"">+</div>","null","","",""
"","","","","","image-keyboard-response","265","2.0.0","412767","pxoffsmob58","711","stimuli/44_100_R.jpg","f","response","j","false"
"","","","","","html-keyboard-response","266","2.0.0","413276","pxoffsmob58","null","<p style=""border: 5px solid red;"">Incorrect.</p>","null","","",""
"","","","","","html-keyboard-response","267","2.0.0","414277","pxoffsmob58","null","<div style=""font-size: 75px;"">+</div>","null","","",""
"","","","","","image-keyboard-response","268","2.0.0","414995","pxoffsmob58","717","stimuli/6_100.jpg","j","response","f","false"
"","","","","","html-keyboard-response","269","2.0.0","415509","pxoffsmob58","null","<p style=""border: 5px solid red;"">Incorrect.</p>","null","","",""
"","","","","","html-keyboard-response","270","2.0.0","416524","pxoffsmob58","null","<div style=""font-size: 75px;"">+</div>","null","","",""
"","","","","","image-keyboard-response","271","2.0.0","418053","pxoffsmob58","1528","stimuli/7_100.jpg","f","response","f","true"
"","","","","","html-keyboard-response","272","2.0.0","418560","pxoffsmob58","null","<p style=""border: 5px solid green;"">Correct!</p>","null","","",""
"","","","","","html-keyboard-response","273","2.0.0","419575","pxoffsmob58","null","<div style=""font-size: 75px;"">+</div>","null","","",""
"","","","","","image-keyboard-response","274","2.0.0","420449","pxoffsmob58","873","stimuli/1_50.jpg","f","response","f","true"
"","","","","","html-keyboard-response","275","2.0.0","420965","pxoffsmob58","null","<p style=""border: 5px solid green;"">Correct!</p>","null","","",""
"","","","","","html-keyboard-response","276","2.0.0","421977","pxoffsmob58","null","<div style=""font-size: 75px;"">+</div>","null","","",""
"","","","","","image-keyboard-response","277","2.0.0","422758","pxoffsmob58","780","stimuli/5_50.jpg","j","response","f","false"
"","","","","","html-keyboard-response","278","2.0.0","423269","pxoffsmob58","null","<p style=""border: 5px solid red;"">Incorrect.</p>","null","","",""
"","","","","","html-keyboard-response","279","2.0.0","424285","pxoffsmob58","null","<div style=""font-size: 75px;"">+</div>","null","","",""
"","","","","","image-keyboard-response","280","2.0.0","424877","pxoffsmob58","591","stimuli/43_100.jpg","f","response","f","true"
"","","","","","html-keyboard-response","281","2.0.0","425392","pxoffsmob58","null","<p style=""border: 5px solid green;"">Correct!</p>","null","","",""
"","","","","","html-keyboard-response","282","2.0.0","426407","pxoffsmob58","null","<div style=""font-size: 75px;"">+</div>","null","","",""
"","","","","","image-keyboard-response","283","2.0.0","427084","pxoffsmob58","676","stimuli/24_100_R.jpg","f","response","j","false"
"","","","","","html-keyboard-response","284","2.0.0","427595","pxoffsmob58","null","<p style=""border: 5px solid red;"">Incorrect.</p>","null","","",""
"","","","","","html-keyboard-response","285","2.0.0","428599","pxoffsmob58","null","<div style=""font-size: 75px;"">+</div>","null","","",""
"","","","","","image-keyboard-response","286","2.0.0","428941","pxoffsmob58","341","stimuli/34_50.jpg","j","response","f","false"
"","","","","","html-keyboard-response","287","2.0.0","429445","pxoffsmob58","null","<p style=""border: 5px solid red;"">Incorrect.</p>","null","","",""
"","","","","","html-keyboard-response","288","2.0.0","430457","pxoffsmob58","null","<div style=""font-size: 75px;"">+</div>","null","","",""
"","","","","","image-keyboard-response","289","2.0.0","430864","pxoffsmob58","406","stimuli/41_150_R.jpg","f","response","j","false"
"","","","","","html-keyboard-response","290","2.0.0","431376","pxoffsmob58","null","<p style=""border: 5px solid red;"">Incorrect.</p>","null","","",""
"","","","","","html-keyboard-response","291","2.0.0","432391","pxoffsmob58","null","<div style=""font-size: 75px;"">+</div>","null","","",""
"","","","","","image-keyboard-response","292","2.0.0","432721","pxoffsmob58","329","stimuli/32_0_R.jpg","f","response","j","false"
"","","","","","html-keyboard-response","293","2.0.0","433234","pxoffsmob58","null","<p style=""border: 5px solid red;"">Incorrect.</p>","null","","",""
"","","","","","html-keyboard-response","294","2.0.0","435610","pxoffsmob58","2376","<p>Thank you for participating!</p><p>Please press space to answer our survey.</p>"," ","","",""
"","","","","","survey-html-form","295","null","560989","pxoffsmob58","125377","","{""response_1"":""Moderately clear and lively"",""response_2"":""Clear and lively"",""response_3"":""Moderately clear and lively"",""response_4"":""Clear and lively"",""response_5"":""Clear and lively"",""response_6"":""Clear and lively"",""response_7"":""Clear and lively"",""response_8"":""Clear and lively"",""response_9"":""Clear and lively"",""response_10"":""Clear and lively"",""response_11"":""Moderately clear and lively"",""response_12"":""Moderately clear and lively"",""response_13"":""Clear and lively"",""response_14"":""Perfectly clear and lively as real seeing"",""response_15"":""Clear and lively"",""response_16"":""Clear and lively""}","","",""
"","","","","","survey-html-form","296","null","587229","pxoffsmob58","26238","","{""age"":""24"",""gender"":""female"",""education"":""some-college"",""handedness"":""left"",""vision"":""corrected"",""technical_difficulties"":""no"",""knowledge_check"":""ability to visualize mentally. ""}","","",""
