"success","timeout","failed_images","failed_audio","failed_video","trial_type","trial_index","plugin_version","time_elapsed","random_id","rt","stimulus","response","task","correct_response","correct"
"true","false","[]","[]","[]","preload","0","2.0.0","1151","pyhdcx2mcqu","","","","","",""
"true","","","","","fullscreen","1","2.0.0","2865","pyhdcx2mcqu","707","","","","",""
"","","","","","html-keyboard-response","2","2.0.0","3777","pyhdcx2mcqu","911","Welcome to the experiment. Press any key to begin."," ","","",""
"","","","","","survey-text","3","2.0.0","5861","pyhdcx2mcqu","2082","","{""participant_id"":""shark""}","","",""
"","","","","","html-keyboard-response","4","2.0.0","8666","pyhdcx2mcqu","2803","
        <p>Welcome to the experiment.</p>
        <p>In this task, you will see pairs of images.</p>
        <p>Your job is to determine whether the image on the right is a rotated version of the image on the left.</p>
        <p>Press the <strong>F</strong> key if the images are the same.</p>
        <p>Press the <strong>J</strong> key if the images are different.</p>
        <p>Press any key to begin.</p>
    "," ","","",""
"","","","","","html-keyboard-response","5","2.0.0","9669","pyhdcx2mcqu","null","<div style=""font-size: 75px;"">+</div>","null","","",""
"","","","","","image-keyboard-response","6","2.0.0","18647","pyhdcx2mcqu","8976","stimuli/3_0.jpg","f","response","f","true"
"","","","","","html-keyboard-response","7","2.0.0","19156","pyhdcx2mcqu","null","<p style=""border: 5px solid green;"">Correct!</p>","null","","",""
"","","","","","html-keyboard-response","8","2.0.0","20161","pyhdcx2mcqu","null","<div style=""font-size: 75px;"">+</div>","null","","",""
"","","","","","image-keyboard-response","9","2.0.0","25259","pyhdcx2mcqu","5097","stimuli/13_50_R.jpg","j","response","j","true"
"","","","","","html-keyboard-response","10","2.0.0","25761","pyhdcx2mcqu","null","<p style=""border: 5px solid green;"">Correct!</p>","null","","",""
"","","","","","html-keyboard-response","11","2.0.0","26770","pyhdcx2mcqu","null","<div style=""font-size: 75px;"">+</div>","null","","",""
"","","","","","image-keyboard-response","12","2.0.0","31929","pyhdcx2mcqu","5158","stimuli/23_150_R.jpg","j","response","j","true"
"","","","","","html-keyboard-response","13","2.0.0","32441","pyhdcx2mcqu","null","<p style=""border: 5px solid green;"">Correct!</p>","null","","",""
"","","","","","html-keyboard-response","14","2.0.0","33451","pyhdcx2mcqu","null","<div style=""font-size: 75px;"">+</div>","null","","",""
"","","","","","image-keyboard-response","15","2.0.0","36053","pyhdcx2mcqu","2601","stimuli/4_50.jpg","f","response","f","true"
"","","","","","html-keyboard-response","16","2.0.0","36568","pyhdcx2mcqu","null","<p style=""border: 5px solid green;"">Correct!</p>","null","","",""
"","","","","","html-keyboard-response","17","2.0.0","37582","pyhdcx2mcqu","null","<div style=""font-size: 75px;"">+</div>","null","","",""
"","","","","","image-keyboard-response","18","2.0.0","44757","pyhdcx2mcqu","7174","stimuli/28_150.jpg","f","response","f","true"
"","","","","","html-keyboard-response","19","2.0.0","45263","pyhdcx2mcqu","null","<p style=""border: 5px solid green;"">Correct!</p>","null","","",""
"","","","","","html-keyboard-response","20","2.0.0","46274","pyhdcx2mcqu","null","<div style=""font-size: 75px;"">+</div>","null","","",""
"","","","","","image-keyboard-response","21","2.0.0","48924","pyhdcx2mcqu","2649","stimuli/22_100_R.jpg","j","response","j","true"
"","","","","","html-keyboard-response","22","2.0.0","49433","pyhdcx2mcqu","null","<p style=""border: 5px solid green;"">Correct!</p>","null","","",""
"","","","","","html-keyboard-response","23","2.0.0","50441","pyhdcx2mcqu","null","<div style=""font-size: 75px;"">+</div>","null","","",""
"","","","","","image-keyboard-response","24","2.0.0","54523","pyhdcx2mcqu","4081","stimuli/26_50.jpg","f","response","f","true"
"","","","","","html-keyboard-response","25","2.0.0","55032","pyhdcx2mcqu","null","<p style=""border: 5px solid green;"">Correct!</p>","null","","",""
"","","","","","html-keyboard-response","26","2.0.0","56046","pyhdcx2mcqu","null","<div style=""font-size: 75px;"">+</div>","null","","",""
"","","","","","image-keyboard-response","27","2.0.0","67597","pyhdcx2mcqu","11550","stimuli/29_150_R.jpg","j","response","j","true"
"","","","","","html-keyboard-response","28","2.0.0","68106","pyhdcx2mcqu","null","<p style=""border: 5px solid green;"">Correct!</p>","null","","",""
"","","","","","html-keyboard-response","29","2.0.0","69121","pyhdcx2mcqu","null","<div style=""font-size: 75px;"">+</div>","null","","",""
"","","","","","image-keyboard-response","30","2.0.0","71291","pyhdcx2mcqu","2170","stimuli/11_50.jpg","f","response","f","true"
"","","","","","html-keyboard-response","31","2.0.0","71802","pyhdcx2mcqu","null","<p style=""border: 5px solid green;"">Correct!</p>","null","","",""
"","","","","","html-keyboard-response","32","2.0.0","72809","pyhdcx2mcqu","null","<div style=""font-size: 75px;"">+</div>","null","","",""
"","","","","","image-keyboard-response","33","2.0.0","75074","pyhdcx2mcqu","2263","stimuli/14_150_R.jpg","j","response","j","true"
"","","","","","html-keyboard-response","34","2.0.0","75583","pyhdcx2mcqu","null","<p style=""border: 5px solid green;"">Correct!</p>","null","","",""
"","","","","","html-keyboard-response","35","2.0.0","76587","pyhdcx2mcqu","null","<div style=""font-size: 75px;"">+</div>","null","","",""
"","","","","","image-keyboard-response","36","2.0.0","81775","pyhdcx2mcqu","5187","stimuli/48_100.jpg","f","response","f","true"
"","","","","","html-keyboard-response","37","2.0.0","82284","pyhdcx2mcqu","null","<p style=""border: 5px solid green;"">Correct!</p>","null","","",""
"","","","","","html-keyboard-response","38","2.0.0","83290","pyhdcx2mcqu","null","<div style=""font-size: 75px;"">+</div>","null","","",""
"","","","","","image-keyboard-response","39","2.0.0","85897","pyhdcx2mcqu","2606","stimuli/48_50.jpg","f","response","f","true"
"","","","","","html-keyboard-response","40","2.0.0","86399","pyhdcx2mcqu","null","<p style=""border: 5px solid green;"">Correct!</p>","null","","",""
"","","","","","html-keyboard-response","41","2.0.0","87409","pyhdcx2mcqu","null","<div style=""font-size: 75px;"">+</div>","null","","",""
"","","","","","image-keyboard-response","42","2.0.0","91049","pyhdcx2mcqu","3639","stimuli/44_0_R.jpg","j","response","j","true"
"","","","","","html-keyboard-response","43","2.0.0","91560","pyhdcx2mcqu","null","<p style=""border: 5px solid green;"">Correct!</p>","null","","",""
"","","","","","html-keyboard-response","44","2.0.0","92563","pyhdcx2mcqu","null","<div style=""font-size: 75px;"">+</div>","null","","",""
"","","","","","image-keyboard-response","45","2.0.0","107173","pyhdcx2mcqu","14609","stimuli/2_150.jpg","f","response","f","true"
"","","","","","html-keyboard-response","46","2.0.0","107689","pyhdcx2mcqu","null","<p style=""border: 5px solid green;"">Correct!</p>","null","","",""
"","","","","","html-keyboard-response","47","2.0.0","108695","pyhdcx2mcqu","null","<div style=""font-size: 75px;"">+</div>","null","","",""
"","","","","","image-keyboard-response","48","2.0.0","111760","pyhdcx2mcqu","3064","stimuli/5_100_R.jpg","j","response","j","true"
"","","","","","html-keyboard-response","49","2.0.0","112270","pyhdcx2mcqu","null","<p style=""border: 5px solid green;"">Correct!</p>","null","","",""
"","","","","","html-keyboard-response","50","2.0.0","113281","pyhdcx2mcqu","null","<div style=""font-size: 75px;"">+</div>","null","","",""
"","","","","","image-keyboard-response","51","2.0.0","118589","pyhdcx2mcqu","5307","stimuli/46_0_R.jpg","j","response","j","true"
"","","","","","html-keyboard-response","52","2.0.0","119101","pyhdcx2mcqu","null","<p style=""border: 5px solid green;"">Correct!</p>","null","","",""
"","","","","","html-keyboard-response","53","2.0.0","120112","pyhdcx2mcqu","null","<div style=""font-size: 75px;"">+</div>","null","","",""
"","","","","","image-keyboard-response","54","2.0.0","122479","pyhdcx2mcqu","2366","stimuli/44_50.jpg","f","response","f","true"
"","","","","","html-keyboard-response","55","2.0.0","122987","pyhdcx2mcqu","null","<p style=""border: 5px solid green;"">Correct!</p>","null","","",""
"","","","","","html-keyboard-response","56","2.0.0","123997","pyhdcx2mcqu","null","<div style=""font-size: 75px;"">+</div>","null","","",""
"","","","","","image-keyboard-response","57","2.0.0","127926","pyhdcx2mcqu","3928","stimuli/26_0_R.jpg","j","response","j","true"
"","","","","","html-keyboard-response","58","2.0.0","128428","pyhdcx2mcqu","null","<p style=""border: 5px solid green;"">Correct!</p>","null","","",""
"","","","","","html-keyboard-response","59","2.0.0","129437","pyhdcx2mcqu","null","<div style=""font-size: 75px;"">+</div>","null","","",""
"","","","","","image-keyboard-response","60","2.0.0","134074","pyhdcx2mcqu","4636","stimuli/39_50_R.jpg","j","response","j","true"
"","","","","","html-keyboard-response","61","2.0.0","134577","pyhdcx2mcqu","null","<p style=""border: 5px solid green;"">Correct!</p>","null","","",""
"","","","","","html-keyboard-response","62","2.0.0","135593","pyhdcx2mcqu","null","<div style=""font-size: 75px;"">+</div>","null","","",""
"","","","","","image-keyboard-response","63","2.0.0","139873","pyhdcx2mcqu","4279","stimuli/11_0_R.jpg","j","response","j","true"
"","","","","","html-keyboard-response","64","2.0.0","140390","pyhdcx2mcqu","null","<p style=""border: 5px solid green;"">Correct!</p>","null","","",""
"","","","","","html-keyboard-response","65","2.0.0","141393","pyhdcx2mcqu","null","<div style=""font-size: 75px;"">+</div>","null","","",""
"","","","","","image-keyboard-response","66","2.0.0","146293","pyhdcx2mcqu","4898","stimuli/6_50_R.jpg","j","response","j","true"
"","","","","","html-keyboard-response","67","2.0.0","146803","pyhdcx2mcqu","null","<p style=""border: 5px solid green;"">Correct!</p>","null","","",""
"","","","","","html-keyboard-response","68","2.0.0","147814","pyhdcx2mcqu","null","<div style=""font-size: 75px;"">+</div>","null","","",""
"","","","","","image-keyboard-response","69","2.0.0","151865","pyhdcx2mcqu","4049","stimuli/20_150.jpg","f","response","f","true"
"","","","","","html-keyboard-response","70","2.0.0","152371","pyhdcx2mcqu","null","<p style=""border: 5px solid green;"">Correct!</p>","null","","",""
"","","","","","html-keyboard-response","71","2.0.0","153377","pyhdcx2mcqu","null","<div style=""font-size: 75px;"">+</div>","null","","",""
"","","","","","image-keyboard-response","72","2.0.0","156215","pyhdcx2mcqu","2838","stimuli/20_50_R.jpg","j","response","j","true"
"","","","","","html-keyboard-response","73","2.0.0","156716","pyhdcx2mcqu","null","<p style=""border: 5px solid green;"">Correct!</p>","null","","",""
"","","","","","html-keyboard-response","74","2.0.0","157726","pyhdcx2mcqu","null","<div style=""font-size: 75px;"">+</div>","null","","",""
"","","","","","image-keyboard-response","75","2.0.0","162847","pyhdcx2mcqu","5121","stimuli/45_100_R.jpg","j","response","j","true"
"","","","","","html-keyboard-response","76","2.0.0","163353","pyhdcx2mcqu","null","<p style=""border: 5px solid green;"">Correct!</p>","null","","",""
"","","","","","html-keyboard-response","77","2.0.0","164357","pyhdcx2mcqu","null","<div style=""font-size: 75px;"">+</div>","null","","",""
"","","","","","image-keyboard-response","78","2.0.0","167021","pyhdcx2mcqu","2663","stimuli/16_150.jpg","f","response","f","true"
"","","","","","html-keyboard-response","79","2.0.0","167536","pyhdcx2mcqu","null","<p style=""border: 5px solid green;"">Correct!</p>","null","","",""
"","","","","","html-keyboard-response","80","2.0.0","168546","pyhdcx2mcqu","null","<div style=""font-size: 75px;"">+</div>","null","","",""
"","","","","","image-keyboard-response","81","2.0.0","171648","pyhdcx2mcqu","3101","stimuli/15_150_R.jpg","j","response","j","true"
"","","","","","html-keyboard-response","82","2.0.0","172154","pyhdcx2mcqu","null","<p style=""border: 5px solid green;"">Correct!</p>","null","","",""
"","","","","","html-keyboard-response","83","2.0.0","173158","pyhdcx2mcqu","null","<div style=""font-size: 75px;"">+</div>","null","","",""
"","","","","","image-keyboard-response","84","2.0.0","175231","pyhdcx2mcqu","2072","stimuli/46_50.jpg","f","response","f","true"
"","","","","","html-keyboard-response","85","2.0.0","175734","pyhdcx2mcqu","null","<p style=""border: 5px solid green;"">Correct!</p>","null","","",""
"","","","","","html-keyboard-response","86","2.0.0","176744","pyhdcx2mcqu","null","<div style=""font-size: 75px;"">+</div>","null","","",""
"","","","","","image-keyboard-response","87","2.0.0","179192","pyhdcx2mcqu","2447","stimuli/1_100.jpg","f","response","f","true"
"","","","","","html-keyboard-response","88","2.0.0","179699","pyhdcx2mcqu","null","<p style=""border: 5px solid green;"">Correct!</p>","null","","",""
"","","","","","html-keyboard-response","89","2.0.0","180705","pyhdcx2mcqu","null","<div style=""font-size: 75px;"">+</div>","null","","",""
"","","","","","image-keyboard-response","90","2.0.0","182903","pyhdcx2mcqu","2197","stimuli/41_150_R.jpg","j","response","j","true"
"","","","","","html-keyboard-response","91","2.0.0","183413","pyhdcx2mcqu","null","<p style=""border: 5px solid green;"">Correct!</p>","null","","",""
"","","","","","html-keyboard-response","92","2.0.0","184417","pyhdcx2mcqu","null","<div style=""font-size: 75px;"">+</div>","null","","",""
"","","","","","image-keyboard-response","93","2.0.0","188214","pyhdcx2mcqu","3796","stimuli/17_150.jpg","f","response","f","true"
"","","","","","html-keyboard-response","94","2.0.0","188720","pyhdcx2mcqu","null","<p style=""border: 5px solid green;"">Correct!</p>","null","","",""
"","","","","","html-keyboard-response","95","2.0.0","189731","pyhdcx2mcqu","null","<div style=""font-size: 75px;"">+</div>","null","","",""
"","","","","","image-keyboard-response","96","2.0.0","191867","pyhdcx2mcqu","2135","stimuli/25_0.jpg","f","response","f","true"
"","","","","","html-keyboard-response","97","2.0.0","192381","pyhdcx2mcqu","null","<p style=""border: 5px solid green;"">Correct!</p>","null","","",""
"","","","","","html-keyboard-response","98","2.0.0","193392","pyhdcx2mcqu","null","<div style=""font-size: 75px;"">+</div>","null","","",""
"","","","","","image-keyboard-response","99","2.0.0","195856","pyhdcx2mcqu","2463","stimuli/15_150.jpg","f","response","f","true"
"","","","","","html-keyboard-response","100","2.0.0","196367","pyhdcx2mcqu","null","<p style=""border: 5px solid green;"">Correct!</p>","null","","",""
"","","","","","html-keyboard-response","101","2.0.0","197379","pyhdcx2mcqu","null","<div style=""font-size: 75px;"">+</div>","null","","",""
"","","","","","image-keyboard-response","102","2.0.0","199592","pyhdcx2mcqu","2212","stimuli/38_50.jpg","f","response","f","true"
"","","","","","html-keyboard-response","103","2.0.0","200093","pyhdcx2mcqu","null","<p style=""border: 5px solid green;"">Correct!</p>","null","","",""
"","","","","","html-keyboard-response","104","2.0.0","201100","pyhdcx2mcqu","null","<div style=""font-size: 75px;"">+</div>","null","","",""
"","","","","","image-keyboard-response","105","2.0.0","203476","pyhdcx2mcqu","2376","stimuli/2_0.jpg","f","response","f","true"
"","","","","","html-keyboard-response","106","2.0.0","203981","pyhdcx2mcqu","null","<p style=""border: 5px solid green;"">Correct!</p>","null","","",""
"","","","","","html-keyboard-response","107","2.0.0","204993","pyhdcx2mcqu","null","<div style=""font-size: 75px;"">+</div>","null","","",""
"","","","","","image-keyboard-response","108","2.0.0","210576","pyhdcx2mcqu","5582","stimuli/7_100_R.jpg","j","response","j","true"
"","","","","","html-keyboard-response","109","2.0.0","211079","pyhdcx2mcqu","null","<p style=""border: 5px solid green;"">Correct!</p>","null","","",""
"","","","","","html-keyboard-response","110","2.0.0","212085","pyhdcx2mcqu","null","<div style=""font-size: 75px;"">+</div>","null","","",""
"","","","","","image-keyboard-response","111","2.0.0","218033","pyhdcx2mcqu","5946","stimuli/17_50_R.jpg","j","response","j","true"
"","","","","","html-keyboard-response","112","2.0.0","218550","pyhdcx2mcqu","null","<p style=""border: 5px solid green;"">Correct!</p>","null","","",""
"","","","","","html-keyboard-response","113","2.0.0","219555","pyhdcx2mcqu","null","<div style=""font-size: 75px;"">+</div>","null","","",""
"","","","","","image-keyboard-response","114","2.0.0","224527","pyhdcx2mcqu","4970","stimuli/11_150.jpg","f","response","f","true"
"","","","","","html-keyboard-response","115","2.0.0","225041","pyhdcx2mcqu","null","<p style=""border: 5px solid green;"">Correct!</p>","null","","",""
"","","","","","html-keyboard-response","116","2.0.0","226048","pyhdcx2mcqu","null","<div style=""font-size: 75px;"">+</div>","null","","",""
"","","","","","image-keyboard-response","117","2.0.0","228146","pyhdcx2mcqu","2097","stimuli/23_50.jpg","f","response","f","true"
"","","","","","html-keyboard-response","118","2.0.0","228651","pyhdcx2mcqu","null","<p style=""border: 5px solid green;"">Correct!</p>","null","","",""
"","","","","","html-keyboard-response","119","2.0.0","229663","pyhdcx2mcqu","null","<div style=""font-size: 75px;"">+</div>","null","","",""
"","","","","","image-keyboard-response","120","2.0.0","231411","pyhdcx2mcqu","1747","stimuli/45_50.jpg","f","response","f","true"
"","","","","","html-keyboard-response","121","2.0.0","231913","pyhdcx2mcqu","null","<p style=""border: 5px solid green;"">Correct!</p>","null","","",""
"","","","","","html-keyboard-response","122","2.0.0","232920","pyhdcx2mcqu","null","<div style=""font-size: 75px;"">+</div>","null","","",""
"","","","","","image-keyboard-response","123","2.0.0","235561","pyhdcx2mcqu","2639","stimuli/15_0_R.jpg","j","response","j","true"
"","","","","","html-keyboard-response","124","2.0.0","236069","pyhdcx2mcqu","null","<p style=""border: 5px solid green;"">Correct!</p>","null","","",""
"","","","","","html-keyboard-response","125","2.0.0","237084","pyhdcx2mcqu","null","<div style=""font-size: 75px;"">+</div>","null","","",""
"","","","","","image-keyboard-response","126","2.0.0","239923","pyhdcx2mcqu","2838","stimuli/48_0_R.jpg","j","response","j","true"
"","","","","","html-keyboard-response","127","2.0.0","240440","pyhdcx2mcqu","null","<p style=""border: 5px solid green;"">Correct!</p>","null","","",""
"","","","","","html-keyboard-response","128","2.0.0","241452","pyhdcx2mcqu","null","<div style=""font-size: 75px;"">+</div>","null","","",""
"","","","","","image-keyboard-response","129","2.0.0","244521","pyhdcx2mcqu","3068","stimuli/43_100.jpg","f","response","f","true"
"","","","","","html-keyboard-response","130","2.0.0","245031","pyhdcx2mcqu","null","<p style=""border: 5px solid green;"">Correct!</p>","null","","",""
"","","","","","html-keyboard-response","131","2.0.0","246043","pyhdcx2mcqu","null","<div style=""font-size: 75px;"">+</div>","null","","",""
"","","","","","image-keyboard-response","132","2.0.0","248564","pyhdcx2mcqu","2519","stimuli/14_50_R.jpg","j","response","j","true"
"","","","","","html-keyboard-response","133","2.0.0","249066","pyhdcx2mcqu","null","<p style=""border: 5px solid green;"">Correct!</p>","null","","",""
"","","","","","html-keyboard-response","134","2.0.0","250077","pyhdcx2mcqu","null","<div style=""font-size: 75px;"">+</div>","null","","",""
"","","","","","image-keyboard-response","135","2.0.0","251426","pyhdcx2mcqu","1348","stimuli/5_0.jpg","f","response","f","true"
"","","","","","html-keyboard-response","136","2.0.0","251939","pyhdcx2mcqu","null","<p style=""border: 5px solid green;"">Correct!</p>","null","","",""
"","","","","","html-keyboard-response","137","2.0.0","252952","pyhdcx2mcqu","null","<div style=""font-size: 75px;"">+</div>","null","","",""
"","","","","","image-keyboard-response","138","2.0.0","255153","pyhdcx2mcqu","2200","stimuli/38_150.jpg","f","response","f","true"
"","","","","","html-keyboard-response","139","2.0.0","255660","pyhdcx2mcqu","null","<p style=""border: 5px solid green;"">Correct!</p>","null","","",""
"","","","","","html-keyboard-response","140","2.0.0","256673","pyhdcx2mcqu","null","<div style=""font-size: 75px;"">+</div>","null","","",""
"","","","","","image-keyboard-response","141","2.0.0","258366","pyhdcx2mcqu","1691","stimuli/41_100.jpg","f","response","f","true"
"","","","","","html-keyboard-response","142","2.0.0","258875","pyhdcx2mcqu","null","<p style=""border: 5px solid green;"">Correct!</p>","null","","",""
"","","","","","html-keyboard-response","143","2.0.0","259883","pyhdcx2mcqu","null","<div style=""font-size: 75px;"">+</div>","null","","",""
"","","","","","image-keyboard-response","144","2.0.0","263339","pyhdcx2mcqu","3455","stimuli/11_150_R.jpg","j","response","j","true"
"","","","","","html-keyboard-response","145","2.0.0","263843","pyhdcx2mcqu","null","<p style=""border: 5px solid green;"">Correct!</p>","null","","",""
"","","","","","html-keyboard-response","146","2.0.0","264850","pyhdcx2mcqu","null","<div style=""font-size: 75px;"">+</div>","null","","",""
"","","","","","image-keyboard-response","147","2.0.0","268241","pyhdcx2mcqu","3390","stimuli/6_100_R.jpg","j","response","j","true"
"","","","","","html-keyboard-response","148","2.0.0","268748","pyhdcx2mcqu","null","<p style=""border: 5px solid green;"">Correct!</p>","null","","",""
"","","","","","html-keyboard-response","149","2.0.0","298756","pyhdcx2mcqu","null","<p> Take a break! Experiment continues in 30 seconds . </p>","null","","",""
"","","","","","html-keyboard-response","150","2.0.0","299759","pyhdcx2mcqu","null","<div style=""font-size: 75px;"">+</div>","null","","",""
"","","","","","image-keyboard-response","151","2.0.0","303026","pyhdcx2mcqu","3267","stimuli/12_150_R.jpg","j","response","j","true"
"","","","","","html-keyboard-response","152","2.0.0","303536","pyhdcx2mcqu","null","<p style=""border: 5px solid green;"">Correct!</p>","null","","",""
"","","","","","html-keyboard-response","153","2.0.0","304550","pyhdcx2mcqu","null","<div style=""font-size: 75px;"">+</div>","null","","",""
"","","","","","image-keyboard-response","154","2.0.0","306586","pyhdcx2mcqu","2035","stimuli/1_150_R.jpg","j","response","j","true"
"","","","","","html-keyboard-response","155","2.0.0","307090","pyhdcx2mcqu","null","<p style=""border: 5px solid green;"">Correct!</p>","null","","",""
"","","","","","html-keyboard-response","156","2.0.0","308101","pyhdcx2mcqu","null","<div style=""font-size: 75px;"">+</div>","null","","",""
"","","","","","image-keyboard-response","157","2.0.0","309977","pyhdcx2mcqu","1875","stimuli/8_0_R.jpg","j","response","j","true"
"","","","","","html-keyboard-response","158","2.0.0","310492","pyhdcx2mcqu","null","<p style=""border: 5px solid green;"">Correct!</p>","null","","",""
"","","","","","html-keyboard-response","159","2.0.0","311507","pyhdcx2mcqu","null","<div style=""font-size: 75px;"">+</div>","null","","",""
"","","","","","image-keyboard-response","160","2.0.0","313627","pyhdcx2mcqu","2119","stimuli/24_100.jpg","f","response","f","true"
"","","","","","html-keyboard-response","161","2.0.0","314138","pyhdcx2mcqu","null","<p style=""border: 5px solid green;"">Correct!</p>","null","","",""
"","","","","","html-keyboard-response","162","2.0.0","315147","pyhdcx2mcqu","null","<div style=""font-size: 75px;"">+</div>","null","","",""
"","","","","","image-keyboard-response","163","2.0.0","318349","pyhdcx2mcqu","3201","stimuli/48_150_R.jpg","j","response","j","true"
"","","","","","html-keyboard-response","164","2.0.0","318853","pyhdcx2mcqu","null","<p style=""border: 5px solid green;"">Correct!</p>","null","","",""
"","","","","","html-keyboard-response","165","2.0.0","319867","pyhdcx2mcqu","null","<div style=""font-size: 75px;"">+</div>","null","","",""
"","","","","","image-keyboard-response","166","2.0.0","321435","pyhdcx2mcqu","1568","stimuli/46_0.jpg","f","response","f","true"
"","","","","","html-keyboard-response","167","2.0.0","321949","pyhdcx2mcqu","null","<p style=""border: 5px solid green;"">Correct!</p>","null","","",""
"","","","","","html-keyboard-response","168","2.0.0","322967","pyhdcx2mcqu","null","<div style=""font-size: 75px;"">+</div>","null","","",""
"","","","","","image-keyboard-response","169","2.0.0","325252","pyhdcx2mcqu","2284","stimuli/4_0.jpg","f","response","f","true"
"","","","","","html-keyboard-response","170","2.0.0","325766","pyhdcx2mcqu","null","<p style=""border: 5px solid green;"">Correct!</p>","null","","",""
"","","","","","html-keyboard-response","171","2.0.0","326781","pyhdcx2mcqu","null","<div style=""font-size: 75px;"">+</div>","null","","",""
"","","","","","image-keyboard-response","172","2.0.0","328165","pyhdcx2mcqu","1383","stimuli/19_0_R.jpg","j","response","j","true"
"","","","","","html-keyboard-response","173","2.0.0","328672","pyhdcx2mcqu","null","<p style=""border: 5px solid green;"">Correct!</p>","null","","",""
"","","","","","html-keyboard-response","174","2.0.0","329684","pyhdcx2mcqu","null","<div style=""font-size: 75px;"">+</div>","null","","",""
"","","","","","image-keyboard-response","175","2.0.0","333642","pyhdcx2mcqu","3957","stimuli/45_50_R.jpg","f","response","j","false"
"","","","","","html-keyboard-response","176","2.0.0","334150","pyhdcx2mcqu","null","<p style=""border: 5px solid red;"">Incorrect.</p>","null","","",""
"","","","","","html-keyboard-response","177","2.0.0","335160","pyhdcx2mcqu","null","<div style=""font-size: 75px;"">+</div>","null","","",""
"","","","","","image-keyboard-response","178","2.0.0","338223","pyhdcx2mcqu","3062","stimuli/19_100_R.jpg","j","response","j","true"
"","","","","","html-keyboard-response","179","2.0.0","338728","pyhdcx2mcqu","null","<p style=""border: 5px solid green;"">Correct!</p>","null","","",""
"","","","","","html-keyboard-response","180","2.0.0","339737","pyhdcx2mcqu","null","<div style=""font-size: 75px;"">+</div>","null","","",""
"","","","","","image-keyboard-response","181","2.0.0","341502","pyhdcx2mcqu","1765","stimuli/24_0_R.jpg","j","response","j","true"
"","","","","","html-keyboard-response","182","2.0.0","342006","pyhdcx2mcqu","null","<p style=""border: 5px solid green;"">Correct!</p>","null","","",""
"","","","","","html-keyboard-response","183","2.0.0","343016","pyhdcx2mcqu","null","<div style=""font-size: 75px;"">+</div>","null","","",""
"","","","","","image-keyboard-response","184","2.0.0","346186","pyhdcx2mcqu","3169","stimuli/43_150.jpg","f","response","f","true"
"","","","","","html-keyboard-response","185","2.0.0","346702","pyhdcx2mcqu","null","<p style=""border: 5px solid green;"">Correct!</p>","null","","",""
"","","","","","html-keyboard-response","186","2.0.0","347704","pyhdcx2mcqu","null","<div style=""font-size: 75px;"">+</div>","null","","",""
"","","","","","image-keyboard-response","187","2.0.0","350356","pyhdcx2mcqu","2650","stimuli/44_150_R.jpg","j","response","j","true"
"","","","","","html-keyboard-response","188","2.0.0","350858","pyhdcx2mcqu","null","<p style=""border: 5px solid green;"">Correct!</p>","null","","",""
"","","","","","html-keyboard-response","189","2.0.0","351871","pyhdcx2mcqu","null","<div style=""font-size: 75px;"">+</div>","null","","",""
"","","","","","image-keyboard-response","190","2.0.0","356403","pyhdcx2mcqu","4531","stimuli/36_100.jpg","f","response","f","true"
"","","","","","html-keyboard-response","191","2.0.0","356906","pyhdcx2mcqu","null","<p style=""border: 5px solid green;"">Correct!</p>","null","","",""
"","","","","","html-keyboard-response","192","2.0.0","357914","pyhdcx2mcqu","null","<div style=""font-size: 75px;"">+</div>","null","","",""
"","","","","","image-keyboard-response","193","2.0.0","359948","pyhdcx2mcqu","2033","stimuli/16_100_R.jpg","j","response","j","true"
"","","","","","html-keyboard-response","194","2.0.0","360456","pyhdcx2mcqu","null","<p style=""border: 5px solid green;"">Correct!</p>","null","","",""
"","","","","","html-keyboard-response","195","2.0.0","361464","pyhdcx2mcqu","null","<div style=""font-size: 75px;"">+</div>","null","","",""
"","","","","","image-keyboard-response","196","2.0.0","363534","pyhdcx2mcqu","2069","stimuli/37_0.jpg","f","response","f","true"
"","","","","","html-keyboard-response","197","2.0.0","364049","pyhdcx2mcqu","null","<p style=""border: 5px solid green;"">Correct!</p>","null","","",""
"","","","","","html-keyboard-response","198","2.0.0","365061","pyhdcx2mcqu","null","<div style=""font-size: 75px;"">+</div>","null","","",""
"","","","","","image-keyboard-response","199","2.0.0","371733","pyhdcx2mcqu","6671","stimuli/39_150.jpg","f","response","f","true"
"","","","","","html-keyboard-response","200","2.0.0","372245","pyhdcx2mcqu","null","<p style=""border: 5px solid green;"">Correct!</p>","null","","",""
"","","","","","html-keyboard-response","201","2.0.0","373257","pyhdcx2mcqu","null","<div style=""font-size: 75px;"">+</div>","null","","",""
"","","","","","image-keyboard-response","202","2.0.0","375308","pyhdcx2mcqu","2050","stimuli/30_100.jpg","f","response","f","true"
"","","","","","html-keyboard-response","203","2.0.0","375811","pyhdcx2mcqu","null","<p style=""border: 5px solid green;"">Correct!</p>","null","","",""
"","","","","","html-keyboard-response","204","2.0.0","376821","pyhdcx2mcqu","null","<div style=""font-size: 75px;"">+</div>","null","","",""
"","","","","","image-keyboard-response","205","2.0.0","379411","pyhdcx2mcqu","2589","stimuli/15_100.jpg","f","response","f","true"
"","","","","","html-keyboard-response","206","2.0.0","379919","pyhdcx2mcqu","null","<p style=""border: 5px solid green;"">Correct!</p>","null","","",""
"","","","","","html-keyboard-response","207","2.0.0","380926","pyhdcx2mcqu","null","<div style=""font-size: 75px;"">+</div>","null","","",""
"","","","","","image-keyboard-response","208","2.0.0","383421","pyhdcx2mcqu","2493","stimuli/4_0_R.jpg","j","response","j","true"
"","","","","","html-keyboard-response","209","2.0.0","383936","pyhdcx2mcqu","null","<p style=""border: 5px solid green;"">Correct!</p>","null","","",""
"","","","","","html-keyboard-response","210","2.0.0","384948","pyhdcx2mcqu","null","<div style=""font-size: 75px;"">+</div>","null","","",""
"","","","","","image-keyboard-response","211","2.0.0","388106","pyhdcx2mcqu","3157","stimuli/47_100.jpg","f","response","f","true"
"","","","","","html-keyboard-response","212","2.0.0","388613","pyhdcx2mcqu","null","<p style=""border: 5px solid green;"">Correct!</p>","null","","",""
"","","","","","html-keyboard-response","213","2.0.0","389624","pyhdcx2mcqu","null","<div style=""font-size: 75px;"">+</div>","null","","",""
"","","","","","image-keyboard-response","214","2.0.0","392675","pyhdcx2mcqu","3051","stimuli/43_100_R.jpg","j","response","j","true"
"","","","","","html-keyboard-response","215","2.0.0","393178","pyhdcx2mcqu","null","<p style=""border: 5px solid green;"">Correct!</p>","null","","",""
"","","","","","html-keyboard-response","216","2.0.0","394190","pyhdcx2mcqu","null","<div style=""font-size: 75px;"">+</div>","null","","",""
"","","","","","image-keyboard-response","217","2.0.0","396814","pyhdcx2mcqu","2623","stimuli/10_0.jpg","f","response","f","true"
"","","","","","html-keyboard-response","218","2.0.0","397323","pyhdcx2mcqu","null","<p style=""border: 5px solid green;"">Correct!</p>","null","","",""
"","","","","","html-keyboard-response","219","2.0.0","398337","pyhdcx2mcqu","null","<div style=""font-size: 75px;"">+</div>","null","","",""
"","","","","","image-keyboard-response","220","2.0.0","411144","pyhdcx2mcqu","12806","stimuli/42_50_R.jpg","j","response","j","true"
"","","","","","html-keyboard-response","221","2.0.0","411647","pyhdcx2mcqu","null","<p style=""border: 5px solid green;"">Correct!</p>","null","","",""
"","","","","","html-keyboard-response","222","2.0.0","412651","pyhdcx2mcqu","null","<div style=""font-size: 75px;"">+</div>","null","","",""
"","","","","","image-keyboard-response","223","2.0.0","415187","pyhdcx2mcqu","2536","stimuli/27_0_R.jpg","j","response","j","true"
"","","","","","html-keyboard-response","224","2.0.0","415692","pyhdcx2mcqu","null","<p style=""border: 5px solid green;"">Correct!</p>","null","","",""
"","","","","","html-keyboard-response","225","2.0.0","416708","pyhdcx2mcqu","null","<div style=""font-size: 75px;"">+</div>","null","","",""
"","","","","","image-keyboard-response","226","2.0.0","418347","pyhdcx2mcqu","1637","stimuli/42_50.jpg","f","response","f","true"
"","","","","","html-keyboard-response","227","2.0.0","418853","pyhdcx2mcqu","null","<p style=""border: 5px solid green;"">Correct!</p>","null","","",""
"","","","","","html-keyboard-response","228","2.0.0","419856","pyhdcx2mcqu","null","<div style=""font-size: 75px;"">+</div>","null","","",""
"","","","","","image-keyboard-response","229","2.0.0","421878","pyhdcx2mcqu","2021","stimuli/7_50_R.jpg","j","response","j","true"
"","","","","","html-keyboard-response","230","2.0.0","422382","pyhdcx2mcqu","null","<p style=""border: 5px solid green;"">Correct!</p>","null","","",""
"","","","","","html-keyboard-response","231","2.0.0","423393","pyhdcx2mcqu","null","<div style=""font-size: 75px;"">+</div>","null","","",""
"","","","","","image-keyboard-response","232","2.0.0","424591","pyhdcx2mcqu","1196","stimuli/28_0.jpg","f","response","f","true"
"","","","","","html-keyboard-response","233","2.0.0","425095","pyhdcx2mcqu","null","<p style=""border: 5px solid green;"">Correct!</p>","null","","",""
"","","","","","html-keyboard-response","234","2.0.0","426111","pyhdcx2mcqu","null","<div style=""font-size: 75px;"">+</div>","null","","",""
"","","","","","image-keyboard-response","235","2.0.0","432372","pyhdcx2mcqu","6260","stimuli/35_150.jpg","f","response","f","true"
"","","","","","html-keyboard-response","236","2.0.0","432877","pyhdcx2mcqu","null","<p style=""border: 5px solid green;"">Correct!</p>","null","","",""
"","","","","","html-keyboard-response","237","2.0.0","433883","pyhdcx2mcqu","null","<div style=""font-size: 75px;"">+</div>","null","","",""
"","","","","","image-keyboard-response","238","2.0.0","437003","pyhdcx2mcqu","3119","stimuli/39_0_R.jpg","j","response","j","true"
"","","","","","html-keyboard-response","239","2.0.0","437512","pyhdcx2mcqu","null","<p style=""border: 5px solid green;"">Correct!</p>","null","","",""
"","","","","","html-keyboard-response","240","2.0.0","438521","pyhdcx2mcqu","null","<div style=""font-size: 75px;"">+</div>","null","","",""
"","","","","","image-keyboard-response","241","2.0.0","446975","pyhdcx2mcqu","8452","stimuli/26_100_R.jpg","j","response","j","true"
"","","","","","html-keyboard-response","242","2.0.0","447482","pyhdcx2mcqu","null","<p style=""border: 5px solid green;"">Correct!</p>","null","","",""
"","","","","","html-keyboard-response","243","2.0.0","448489","pyhdcx2mcqu","null","<div style=""font-size: 75px;"">+</div>","null","","",""
"","","","","","image-keyboard-response","244","2.0.0","451058","pyhdcx2mcqu","2568","stimuli/5_50_R.jpg","j","response","j","true"
"","","","","","html-keyboard-response","245","2.0.0","451563","pyhdcx2mcqu","null","<p style=""border: 5px solid green;"">Correct!</p>","null","","",""
"","","","","","html-keyboard-response","246","2.0.0","452567","pyhdcx2mcqu","null","<div style=""font-size: 75px;"">+</div>","null","","",""
"","","","","","image-keyboard-response","247","2.0.0","454096","pyhdcx2mcqu","1528","stimuli/6_0.jpg","f","response","f","true"
"","","","","","html-keyboard-response","248","2.0.0","454607","pyhdcx2mcqu","null","<p style=""border: 5px solid green;"">Correct!</p>","null","","",""
"","","","","","html-keyboard-response","249","2.0.0","455621","pyhdcx2mcqu","null","<div style=""font-size: 75px;"">+</div>","null","","",""
"","","","","","image-keyboard-response","250","2.0.0","459219","pyhdcx2mcqu","3596","stimuli/26_100.jpg","f","response","f","true"
"","","","","","html-keyboard-response","251","2.0.0","459721","pyhdcx2mcqu","null","<p style=""border: 5px solid green;"">Correct!</p>","null","","",""
"","","","","","html-keyboard-response","252","2.0.0","460729","pyhdcx2mcqu","null","<div style=""font-size: 75px;"">+</div>","null","","",""
"","","","","","image-keyboard-response","253","2.0.0","462788","pyhdcx2mcqu","2058","stimuli/30_100_R.jpg","j","response","j","true"
"","","","","","html-keyboard-response","254","2.0.0","463300","pyhdcx2mcqu","null","<p style=""border: 5px solid green;"">Correct!</p>","null","","",""
"","","","","","html-keyboard-response","255","2.0.0","464304","pyhdcx2mcqu","null","<div style=""font-size: 75px;"">+</div>","null","","",""
"","","","","","image-keyboard-response","256","2.0.0","466582","pyhdcx2mcqu","2277","stimuli/31_50_R.jpg","j","response","j","true"
"","","","","","html-keyboard-response","257","2.0.0","467091","pyhdcx2mcqu","null","<p style=""border: 5px solid green;"">Correct!</p>","null","","",""
"","","","","","html-keyboard-response","258","2.0.0","468105","pyhdcx2mcqu","null","<div style=""font-size: 75px;"">+</div>","null","","",""
"","","","","","image-keyboard-response","259","2.0.0","477003","pyhdcx2mcqu","8897","stimuli/26_50_R.jpg","j","response","j","true"
"","","","","","html-keyboard-response","260","2.0.0","477515","pyhdcx2mcqu","null","<p style=""border: 5px solid green;"">Correct!</p>","null","","",""
"","","","","","html-keyboard-response","261","2.0.0","478524","pyhdcx2mcqu","null","<div style=""font-size: 75px;"">+</div>","null","","",""
"","","","","","image-keyboard-response","262","2.0.0","479854","pyhdcx2mcqu","1330","stimuli/32_0.jpg","f","response","f","true"
"","","","","","html-keyboard-response","263","2.0.0","480357","pyhdcx2mcqu","null","<p style=""border: 5px solid green;"">Correct!</p>","null","","",""
"","","","","","html-keyboard-response","264","2.0.0","481360","pyhdcx2mcqu","null","<div style=""font-size: 75px;"">+</div>","null","","",""
"","","","","","image-keyboard-response","265","2.0.0","484498","pyhdcx2mcqu","3137","stimuli/30_50.jpg","f","response","f","true"
"","","","","","html-keyboard-response","266","2.0.0","485001","pyhdcx2mcqu","null","<p style=""border: 5px solid green;"">Correct!</p>","null","","",""
"","","","","","html-keyboard-response","267","2.0.0","486013","pyhdcx2mcqu","null","<div style=""font-size: 75px;"">+</div>","null","","",""
"","","","","","image-keyboard-response","268","2.0.0","490900","pyhdcx2mcqu","4885","stimuli/2_150_R.jpg","j","response","j","true"
"","","","","","html-keyboard-response","269","2.0.0","491415","pyhdcx2mcqu","null","<p style=""border: 5px solid green;"">Correct!</p>","null","","",""
"","","","","","html-keyboard-response","270","2.0.0","492419","pyhdcx2mcqu","null","<div style=""font-size: 75px;"">+</div>","null","","",""
"","","","","","image-keyboard-response","271","2.0.0","498491","pyhdcx2mcqu","6070","stimuli/6_100.jpg","f","response","f","true"
"","","","","","html-keyboard-response","272","2.0.0","498997","pyhdcx2mcqu","null","<p style=""border: 5px solid green;"">Correct!</p>","null","","",""
"","","","","","html-keyboard-response","273","2.0.0","500003","pyhdcx2mcqu","null","<div style=""font-size: 75px;"">+</div>","null","","",""
"","","","","","image-keyboard-response","274","2.0.0","504636","pyhdcx2mcqu","4632","stimuli/26_150_R.jpg","j","response","j","true"
"","","","","","html-keyboard-response","275","2.0.0","505150","pyhdcx2mcqu","null","<p style=""border: 5px solid green;"">Correct!</p>","null","","",""
"","","","","","html-keyboard-response","276","2.0.0","506162","pyhdcx2mcqu","null","<div style=""font-size: 75px;"">+</div>","null","","",""
"","","","","","image-keyboard-response","277","2.0.0","511450","pyhdcx2mcqu","5287","stimuli/40_150.jpg","f","response","f","true"
"","","","","","html-keyboard-response","278","2.0.0","511955","pyhdcx2mcqu","null","<p style=""border: 5px solid green;"">Correct!</p>","null","","",""
"","","","","","html-keyboard-response","279","2.0.0","512966","pyhdcx2mcqu","null","<div style=""font-size: 75px;"">+</div>","null","","",""
"","","","","","image-keyboard-response","280","2.0.0","515036","pyhdcx2mcqu","2069","stimuli/13_100.jpg","f","response","f","true"
"","","","","","html-keyboard-response","281","2.0.0","515542","pyhdcx2mcqu","null","<p style=""border: 5px solid green;"">Correct!</p>","null","","",""
"","","","","","html-keyboard-response","282","2.0.0","516552","pyhdcx2mcqu","null","<div style=""font-size: 75px;"">+</div>","null","","",""
"","","","","","image-keyboard-response","283","2.0.0","520988","pyhdcx2mcqu","4436","stimuli/3_100_R.jpg","j","response","j","true"
"","","","","","html-keyboard-response","284","2.0.0","521501","pyhdcx2mcqu","null","<p style=""border: 5px solid green;"">Correct!</p>","null","","",""
"","","","","","html-keyboard-response","285","2.0.0","522509","pyhdcx2mcqu","null","<div style=""font-size: 75px;"">+</div>","null","","",""
"","","","","","image-keyboard-response","286","2.0.0","524061","pyhdcx2mcqu","1551","stimuli/31_0.jpg","f","response","f","true"
"","","","","","html-keyboard-response","287","2.0.0","524564","pyhdcx2mcqu","null","<p style=""border: 5px solid green;"">Correct!</p>","null","","",""
"","","","","","html-keyboard-response","288","2.0.0","525573","pyhdcx2mcqu","null","<div style=""font-size: 75px;"">+</div>","null","","",""
"","","","","","image-keyboard-response","289","2.0.0","527497","pyhdcx2mcqu","1923","stimuli/1_50.jpg","f","response","f","true"
"","","","","","html-keyboard-response","290","2.0.0","528000","pyhdcx2mcqu","null","<p style=""border: 5px solid green;"">Correct!</p>","null","","",""
"","","","","","html-keyboard-response","291","2.0.0","529011","pyhdcx2mcqu","null","<div style=""font-size: 75px;"">+</div>","null","","",""
"","","","","","image-keyboard-response","292","2.0.0","530948","pyhdcx2mcqu","1936","stimuli/48_100_R.jpg","j","response","j","true"
"","","","","","html-keyboard-response","293","2.0.0","531452","pyhdcx2mcqu","null","<p style=""border: 5px solid green;"">Correct!</p>","null","","",""
"","","","","","html-keyboard-response","294","2.0.0","533334","pyhdcx2mcqu","1881","<p>Thank you for participating!</p><p>Please press space to answer our survey.</p>"," ","","",""
"","","","","","survey-html-form","295","null","785049","pyhdcx2mcqu","251711","","{""response_1"":""Dim and vague; flat"",""response_2"":""Dim and vague; flat"",""response_3"":""No image at all, you only “know” that you are thinking of the object"",""response_4"":""No image at all, you only “know” that you are thinking of the object"",""response_5"":""Moderately clear and lively"",""response_6"":""Dim and vague; flat"",""response_7"":""Dim and vague; flat"",""response_8"":""Dim and vague; flat"",""response_9"":""Dim and vague; flat"",""response_10"":""No image at all, you only “know” that you are thinking of the object"",""response_11"":""Dim and vague; flat"",""response_12"":""No image at all, you only “know” that you are thinking of the object"",""response_13"":""No image at all, you only “know” that you are thinking of the object"",""response_14"":""Dim and vague; flat"",""response_15"":""Dim and vague; flat"",""response_16"":""Dim and vague; flat""}","","",""
"","","","","","survey-html-form","296","null","901682","pyhdcx2mcqu","116631","","{""age"":""21"",""gender"":""male"",""education"":""some-college"",""handedness"":""right"",""vision"":""corrected"",""technical_difficulties"":""no"",""knowledge_check"":""Manipulation of an object within the mind(ie you only see the visualization within your mind)""}","","",""
