"success","timeout","failed_images","failed_audio","failed_video","trial_type","trial_index","plugin_version","time_elapsed","random_id","rt","stimulus","response","task","correct_response","correct"
"true","false","[]","[]","[]","preload","0","2.0.0","1572","pyppsqhkjns","","","","","",""
"true","","","","","fullscreen","1","2.0.0","4064","pyppsqhkjns","1487","","","","",""
"","","","","","html-keyboard-response","2","2.0.0","7291","pyppsqhkjns","3226","Welcome to the experiment. Press any key to begin."," ","","",""
"","","","","","survey-text","3","2.0.0","16428","pyppsqhkjns","9135","","{""participant_id"":""tiger""}","","",""
"","","","","","html-keyboard-response","4","2.0.0","809321","pyppsqhkjns","792917","
        <p>Welcome to the experiment.</p>
        <p>In this task, you will see pairs of images.</p>
        <p>Your job is to determine whether the image on the right is a rotated version of the image on the left.</p>
        <p>Press the <strong>F</strong> key if the images are the same.</p>
        <p>Press the <strong>J</strong> key if the images are different.</p>
        <p>Press any key to begin.</p>
    "," ","","",""
"","","","","","html-keyboard-response","5","2.0.0","810329","pyppsqhkjns","null","<div style=""font-size: 75px;"">+</div>","null","","",""
"","","","","","image-keyboard-response","6","2.0.0","814425","pyppsqhkjns","4090","stimuli/17_0.jpg","f","response","f","true"
"","","","","","html-keyboard-response","7","2.0.0","814937","pyppsqhkjns","null","<p style=""border: 5px solid green;"">Correct!</p>","null","","",""
"","","","","","html-keyboard-response","8","2.0.0","815950","pyppsqhkjns","null","<div style=""font-size: 75px;"">+</div>","null","","",""
"","","","","","image-keyboard-response","9","2.0.0","818590","pyppsqhkjns","2640","stimuli/20_0.jpg","f","response","f","true"
"","","","","","html-keyboard-response","10","2.0.0","819098","pyppsqhkjns","null","<p style=""border: 5px solid green;"">Correct!</p>","null","","",""
"","","","","","html-keyboard-response","11","2.0.0","820110","pyppsqhkjns","null","<div style=""font-size: 75px;"">+</div>","null","","",""
"","","","","","image-keyboard-response","12","2.0.0","823545","pyppsqhkjns","3433","stimuli/38_100_R.jpg","j","response","j","true"
"","","","","","html-keyboard-response","13","2.0.0","824046","pyppsqhkjns","null","<p style=""border: 5px solid green;"">Correct!</p>","null","","",""
"","","","","","html-keyboard-response","14","2.0.0","825056","pyppsqhkjns","null","<div style=""font-size: 75px;"">+</div>","null","","",""
"","","","","","image-keyboard-response","15","2.0.0","830212","pyppsqhkjns","5156","stimuli/21_100.jpg","f","response","f","true"
"","","","","","html-keyboard-response","16","2.0.0","830725","pyppsqhkjns","null","<p style=""border: 5px solid green;"">Correct!</p>","null","","",""
"","","","","","html-keyboard-response","17","2.0.0","831737","pyppsqhkjns","null","<div style=""font-size: 75px;"">+</div>","null","","",""
"","","","","","image-keyboard-response","18","2.0.0","834010","pyppsqhkjns","2272","stimuli/14_0_R.jpg","j","response","j","true"
"","","","","","html-keyboard-response","19","2.0.0","834527","pyppsqhkjns","null","<p style=""border: 5px solid green;"">Correct!</p>","null","","",""
"","","","","","html-keyboard-response","20","2.0.0","835534","pyppsqhkjns","null","<div style=""font-size: 75px;"">+</div>","null","","",""
"","","","","","image-keyboard-response","21","2.0.0","838077","pyppsqhkjns","2541","stimuli/16_50.jpg","j","response","f","false"
"","","","","","html-keyboard-response","22","2.0.0","838588","pyppsqhkjns","null","<p style=""border: 5px solid red;"">Incorrect.</p>","null","","",""
"","","","","","html-keyboard-response","23","2.0.0","839603","pyppsqhkjns","null","<div style=""font-size: 75px;"">+</div>","null","","",""
"","","","","","image-keyboard-response","24","2.0.0","843596","pyppsqhkjns","3992","stimuli/22_150_R.jpg","j","response","j","true"
"","","","","","html-keyboard-response","25","2.0.0","844109","pyppsqhkjns","null","<p style=""border: 5px solid green;"">Correct!</p>","null","","",""
"","","","","","html-keyboard-response","26","2.0.0","845109","pyppsqhkjns","null","<div style=""font-size: 75px;"">+</div>","null","","",""
"","","","","","image-keyboard-response","27","2.0.0","850181","pyppsqhkjns","5071","stimuli/44_100_R.jpg","j","response","j","true"
"","","","","","html-keyboard-response","28","2.0.0","850689","pyppsqhkjns","null","<p style=""border: 5px solid green;"">Correct!</p>","null","","",""
"","","","","","html-keyboard-response","29","2.0.0","851699","pyppsqhkjns","null","<div style=""font-size: 75px;"">+</div>","null","","",""
"","","","","","image-keyboard-response","30","2.0.0","856438","pyppsqhkjns","4737","stimuli/35_50.jpg","f","response","f","true"
"","","","","","html-keyboard-response","31","2.0.0","856948","pyppsqhkjns","null","<p style=""border: 5px solid green;"">Correct!</p>","null","","",""
"","","","","","html-keyboard-response","32","2.0.0","857964","pyppsqhkjns","null","<div style=""font-size: 75px;"">+</div>","null","","",""
"","","","","","image-keyboard-response","33","2.0.0","859985","pyppsqhkjns","2020","stimuli/24_0_R.jpg","j","response","j","true"
"","","","","","html-keyboard-response","34","2.0.0","860500","pyppsqhkjns","null","<p style=""border: 5px solid green;"">Correct!</p>","null","","",""
"","","","","","html-keyboard-response","35","2.0.0","861513","pyppsqhkjns","null","<div style=""font-size: 75px;"">+</div>","null","","",""
"","","","","","image-keyboard-response","36","2.0.0","863603","pyppsqhkjns","2088","stimuli/11_0.jpg","f","response","f","true"
"","","","","","html-keyboard-response","37","2.0.0","864117","pyppsqhkjns","null","<p style=""border: 5px solid green;"">Correct!</p>","null","","",""
"","","","","","html-keyboard-response","38","2.0.0","865128","pyppsqhkjns","null","<div style=""font-size: 75px;"">+</div>","null","","",""
"","","","","","image-keyboard-response","39","2.0.0","866656","pyppsqhkjns","1527","stimuli/38_50_R.jpg","j","response","j","true"
"","","","","","html-keyboard-response","40","2.0.0","867167","pyppsqhkjns","null","<p style=""border: 5px solid green;"">Correct!</p>","null","","",""
"","","","","","html-keyboard-response","41","2.0.0","868177","pyppsqhkjns","null","<div style=""font-size: 75px;"">+</div>","null","","",""
"","","","","","image-keyboard-response","42","2.0.0","869810","pyppsqhkjns","1632","stimuli/13_150_R.jpg","j","response","j","true"
"","","","","","html-keyboard-response","43","2.0.0","870322","pyppsqhkjns","null","<p style=""border: 5px solid green;"">Correct!</p>","null","","",""
"","","","","","html-keyboard-response","44","2.0.0","871324","pyppsqhkjns","null","<div style=""font-size: 75px;"">+</div>","null","","",""
"","","","","","image-keyboard-response","45","2.0.0","875459","pyppsqhkjns","4134","stimuli/35_150.jpg","f","response","f","true"
"","","","","","html-keyboard-response","46","2.0.0","875962","pyppsqhkjns","null","<p style=""border: 5px solid green;"">Correct!</p>","null","","",""
"","","","","","html-keyboard-response","47","2.0.0","876979","pyppsqhkjns","null","<div style=""font-size: 75px;"">+</div>","null","","",""
"","","","","","image-keyboard-response","48","2.0.0","880408","pyppsqhkjns","3429","stimuli/4_150.jpg","f","response","f","true"
"","","","","","html-keyboard-response","49","2.0.0","880911","pyppsqhkjns","null","<p style=""border: 5px solid green;"">Correct!</p>","null","","",""
"","","","","","html-keyboard-response","50","2.0.0","881922","pyppsqhkjns","null","<div style=""font-size: 75px;"">+</div>","null","","",""
"","","","","","image-keyboard-response","51","2.0.0","883404","pyppsqhkjns","1481","stimuli/39_50.jpg","f","response","f","true"
"","","","","","html-keyboard-response","52","2.0.0","883919","pyppsqhkjns","null","<p style=""border: 5px solid green;"">Correct!</p>","null","","",""
"","","","","","html-keyboard-response","53","2.0.0","884929","pyppsqhkjns","null","<div style=""font-size: 75px;"">+</div>","null","","",""
"","","","","","image-keyboard-response","54","2.0.0","892587","pyppsqhkjns","7657","stimuli/29_150.jpg","f","response","f","true"
"","","","","","html-keyboard-response","55","2.0.0","893098","pyppsqhkjns","null","<p style=""border: 5px solid green;"">Correct!</p>","null","","",""
"","","","","","html-keyboard-response","56","2.0.0","894107","pyppsqhkjns","null","<div style=""font-size: 75px;"">+</div>","null","","",""
"","","","","","image-keyboard-response","57","2.0.0","896663","pyppsqhkjns","2555","stimuli/12_100.jpg","f","response","f","true"
"","","","","","html-keyboard-response","58","2.0.0","897175","pyppsqhkjns","null","<p style=""border: 5px solid green;"">Correct!</p>","null","","",""
"","","","","","html-keyboard-response","59","2.0.0","898188","pyppsqhkjns","null","<div style=""font-size: 75px;"">+</div>","null","","",""
"","","","","","image-keyboard-response","60","2.0.0","901945","pyppsqhkjns","3756","stimuli/44_50_R.jpg","j","response","j","true"
"","","","","","html-keyboard-response","61","2.0.0","902458","pyppsqhkjns","null","<p style=""border: 5px solid green;"">Correct!</p>","null","","",""
"","","","","","html-keyboard-response","62","2.0.0","903469","pyppsqhkjns","null","<div style=""font-size: 75px;"">+</div>","null","","",""
"","","","","","image-keyboard-response","63","2.0.0","907934","pyppsqhkjns","4463","stimuli/7_0_R.jpg","j","response","j","true"
"","","","","","html-keyboard-response","64","2.0.0","908444","pyppsqhkjns","null","<p style=""border: 5px solid green;"">Correct!</p>","null","","",""
"","","","","","html-keyboard-response","65","2.0.0","909457","pyppsqhkjns","null","<div style=""font-size: 75px;"">+</div>","null","","",""
"","","","","","image-keyboard-response","66","2.0.0","916401","pyppsqhkjns","6942","stimuli/40_150.jpg","f","response","f","true"
"","","","","","html-keyboard-response","67","2.0.0","916910","pyppsqhkjns","null","<p style=""border: 5px solid green;"">Correct!</p>","null","","",""
"","","","","","html-keyboard-response","68","2.0.0","917935","pyppsqhkjns","null","<div style=""font-size: 75px;"">+</div>","null","","",""
"","","","","","image-keyboard-response","69","2.0.0","943397","pyppsqhkjns","25462","stimuli/3_100_R.jpg","j","response","j","true"
"","","","","","html-keyboard-response","70","2.0.0","943905","pyppsqhkjns","null","<p style=""border: 5px solid green;"">Correct!</p>","null","","",""
"","","","","","html-keyboard-response","71","2.0.0","944913","pyppsqhkjns","null","<div style=""font-size: 75px;"">+</div>","null","","",""
"","","","","","image-keyboard-response","72","2.0.0","949488","pyppsqhkjns","4575","stimuli/46_100_R.jpg","j","response","j","true"
"","","","","","html-keyboard-response","73","2.0.0","949992","pyppsqhkjns","null","<p style=""border: 5px solid green;"">Correct!</p>","null","","",""
"","","","","","html-keyboard-response","74","2.0.0","950999","pyppsqhkjns","null","<div style=""font-size: 75px;"">+</div>","null","","",""
"","","","","","image-keyboard-response","75","2.0.0","952830","pyppsqhkjns","1830","stimuli/12_0.jpg","f","response","f","true"
"","","","","","html-keyboard-response","76","2.0.0","953337","pyppsqhkjns","null","<p style=""border: 5px solid green;"">Correct!</p>","null","","",""
"","","","","","html-keyboard-response","77","2.0.0","954348","pyppsqhkjns","null","<div style=""font-size: 75px;"">+</div>","null","","",""
"","","","","","image-keyboard-response","78","2.0.0","956729","pyppsqhkjns","2380","stimuli/38_150_R.jpg","j","response","j","true"
"","","","","","html-keyboard-response","79","2.0.0","957236","pyppsqhkjns","null","<p style=""border: 5px solid green;"">Correct!</p>","null","","",""
"","","","","","html-keyboard-response","80","2.0.0","958244","pyppsqhkjns","null","<div style=""font-size: 75px;"">+</div>","null","","",""
"","","","","","image-keyboard-response","81","2.0.0","961014","pyppsqhkjns","2767","stimuli/43_100.jpg","j","response","f","false"
"","","","","","html-keyboard-response","82","2.0.0","961522","pyppsqhkjns","null","<p style=""border: 5px solid red;"">Incorrect.</p>","null","","",""
"","","","","","html-keyboard-response","83","2.0.0","962535","pyppsqhkjns","null","<div style=""font-size: 75px;"">+</div>","null","","",""
"","","","","","image-keyboard-response","84","2.0.0","964482","pyppsqhkjns","1946","stimuli/41_100_R.jpg","j","response","j","true"
"","","","","","html-keyboard-response","85","2.0.0","964992","pyppsqhkjns","null","<p style=""border: 5px solid green;"">Correct!</p>","null","","",""
"","","","","","html-keyboard-response","86","2.0.0","966005","pyppsqhkjns","null","<div style=""font-size: 75px;"">+</div>","null","","",""
"","","","","","image-keyboard-response","87","2.0.0","967617","pyppsqhkjns","1611","stimuli/7_150_R.jpg","f","response","j","false"
"","","","","","html-keyboard-response","88","2.0.0","968124","pyppsqhkjns","null","<p style=""border: 5px solid red;"">Incorrect.</p>","null","","",""
"","","","","","html-keyboard-response","89","2.0.0","969134","pyppsqhkjns","null","<div style=""font-size: 75px;"">+</div>","null","","",""
"","","","","","image-keyboard-response","90","2.0.0","972507","pyppsqhkjns","3372","stimuli/14_150_R.jpg","j","response","j","true"
"","","","","","html-keyboard-response","91","2.0.0","973008","pyppsqhkjns","null","<p style=""border: 5px solid green;"">Correct!</p>","null","","",""
"","","","","","html-keyboard-response","92","2.0.0","974019","pyppsqhkjns","null","<div style=""font-size: 75px;"">+</div>","null","","",""
"","","","","","image-keyboard-response","93","2.0.0","978894","pyppsqhkjns","4874","stimuli/24_100.jpg","f","response","f","true"
"","","","","","html-keyboard-response","94","2.0.0","979405","pyppsqhkjns","null","<p style=""border: 5px solid green;"">Correct!</p>","null","","",""
"","","","","","html-keyboard-response","95","2.0.0","980411","pyppsqhkjns","null","<div style=""font-size: 75px;"">+</div>","null","","",""
"","","","","","image-keyboard-response","96","2.0.0","1005884","pyppsqhkjns","25474","stimuli/48_150.jpg","f","response","f","true"
"","","","","","html-keyboard-response","97","2.0.0","1006391","pyppsqhkjns","null","<p style=""border: 5px solid green;"">Correct!</p>","null","","",""
"","","","","","html-keyboard-response","98","2.0.0","1007403","pyppsqhkjns","null","<div style=""font-size: 75px;"">+</div>","null","","",""
"","","","","","image-keyboard-response","99","2.0.0","1008413","pyppsqhkjns","1010","stimuli/45_0.jpg","f","response","f","true"
"","","","","","html-keyboard-response","100","2.0.0","1008917","pyppsqhkjns","null","<p style=""border: 5px solid green;"">Correct!</p>","null","","",""
"","","","","","html-keyboard-response","101","2.0.0","1009931","pyppsqhkjns","null","<div style=""font-size: 75px;"">+</div>","null","","",""
"","","","","","image-keyboard-response","102","2.0.0","1013873","pyppsqhkjns","3941","stimuli/36_100.jpg","f","response","f","true"
"","","","","","html-keyboard-response","103","2.0.0","1014386","pyppsqhkjns","null","<p style=""border: 5px solid green;"">Correct!</p>","null","","",""
"","","","","","html-keyboard-response","104","2.0.0","1015401","pyppsqhkjns","null","<div style=""font-size: 75px;"">+</div>","null","","",""
"","","","","","image-keyboard-response","105","2.0.0","1017182","pyppsqhkjns","1781","stimuli/20_150_R.jpg","j","response","j","true"
"","","","","","html-keyboard-response","106","2.0.0","1017690","pyppsqhkjns","null","<p style=""border: 5px solid green;"">Correct!</p>","null","","",""
"","","","","","html-keyboard-response","107","2.0.0","1018698","pyppsqhkjns","null","<div style=""font-size: 75px;"">+</div>","null","","",""
"","","","","","image-keyboard-response","108","2.0.0","1025873","pyppsqhkjns","7175","stimuli/9_150.jpg","f","response","f","true"
"","","","","","html-keyboard-response","109","2.0.0","1026384","pyppsqhkjns","null","<p style=""border: 5px solid green;"">Correct!</p>","null","","",""
"","","","","","html-keyboard-response","110","2.0.0","1027400","pyppsqhkjns","null","<div style=""font-size: 75px;"">+</div>","null","","",""
"","","","","","image-keyboard-response","111","2.0.0","1028875","pyppsqhkjns","1475","stimuli/34_50.jpg","f","response","f","true"
"","","","","","html-keyboard-response","112","2.0.0","1029379","pyppsqhkjns","null","<p style=""border: 5px solid green;"">Correct!</p>","null","","",""
"","","","","","html-keyboard-response","113","2.0.0","1030390","pyppsqhkjns","null","<div style=""font-size: 75px;"">+</div>","null","","",""
"","","","","","image-keyboard-response","114","2.0.0","1031133","pyppsqhkjns","742","stimuli/48_0.jpg","f","response","f","true"
"","","","","","html-keyboard-response","115","2.0.0","1031645","pyppsqhkjns","null","<p style=""border: 5px solid green;"">Correct!</p>","null","","",""
"","","","","","html-keyboard-response","116","2.0.0","1032660","pyppsqhkjns","null","<div style=""font-size: 75px;"">+</div>","null","","",""
"","","","","","image-keyboard-response","117","2.0.0","1033808","pyppsqhkjns","1147","stimuli/9_0_R.jpg","j","response","j","true"
"","","","","","html-keyboard-response","118","2.0.0","1034323","pyppsqhkjns","null","<p style=""border: 5px solid green;"">Correct!</p>","null","","",""
"","","","","","html-keyboard-response","119","2.0.0","1035333","pyppsqhkjns","null","<div style=""font-size: 75px;"">+</div>","null","","",""
"","","","","","image-keyboard-response","120","2.0.0","1037326","pyppsqhkjns","1992","stimuli/41_50.jpg","f","response","f","true"
"","","","","","html-keyboard-response","121","2.0.0","1037840","pyppsqhkjns","null","<p style=""border: 5px solid green;"">Correct!</p>","null","","",""
"","","","","","html-keyboard-response","122","2.0.0","1038853","pyppsqhkjns","null","<div style=""font-size: 75px;"">+</div>","null","","",""
"","","","","","image-keyboard-response","123","2.0.0","1040492","pyppsqhkjns","1638","stimuli/30_50_R.jpg","j","response","j","true"
"","","","","","html-keyboard-response","124","2.0.0","1041004","pyppsqhkjns","null","<p style=""border: 5px solid green;"">Correct!</p>","null","","",""
"","","","","","html-keyboard-response","125","2.0.0","1042014","pyppsqhkjns","null","<div style=""font-size: 75px;"">+</div>","null","","",""
"","","","","","image-keyboard-response","126","2.0.0","1044603","pyppsqhkjns","2588","stimuli/37_150.jpg","j","response","f","false"
"","","","","","html-keyboard-response","127","2.0.0","1045118","pyppsqhkjns","null","<p style=""border: 5px solid red;"">Incorrect.</p>","null","","",""
"","","","","","html-keyboard-response","128","2.0.0","1046126","pyppsqhkjns","null","<div style=""font-size: 75px;"">+</div>","null","","",""
"","","","","","image-keyboard-response","129","2.0.0","1047043","pyppsqhkjns","915","stimuli/34_0.jpg","f","response","f","true"
"","","","","","html-keyboard-response","130","2.0.0","1047547","pyppsqhkjns","null","<p style=""border: 5px solid green;"">Correct!</p>","null","","",""
"","","","","","html-keyboard-response","131","2.0.0","1048560","pyppsqhkjns","null","<div style=""font-size: 75px;"">+</div>","null","","",""
"","","","","","image-keyboard-response","132","2.0.0","1049689","pyppsqhkjns","1128","stimuli/32_50_R.jpg","j","response","j","true"
"","","","","","html-keyboard-response","133","2.0.0","1050197","pyppsqhkjns","null","<p style=""border: 5px solid green;"">Correct!</p>","null","","",""
"","","","","","html-keyboard-response","134","2.0.0","1051205","pyppsqhkjns","null","<div style=""font-size: 75px;"">+</div>","null","","",""
"","","","","","image-keyboard-response","135","2.0.0","1053128","pyppsqhkjns","1922","stimuli/41_150_R.jpg","j","response","j","true"
"","","","","","html-keyboard-response","136","2.0.0","1053639","pyppsqhkjns","null","<p style=""border: 5px solid green;"">Correct!</p>","null","","",""
"","","","","","html-keyboard-response","137","2.0.0","1054654","pyppsqhkjns","null","<div style=""font-size: 75px;"">+</div>","null","","",""
"","","","","","image-keyboard-response","138","2.0.0","1073410","pyppsqhkjns","18757","stimuli/17_150.jpg","f","response","f","true"
"","","","","","html-keyboard-response","139","2.0.0","1073921","pyppsqhkjns","null","<p style=""border: 5px solid green;"">Correct!</p>","null","","",""
"","","","","","html-keyboard-response","140","2.0.0","1074923","pyppsqhkjns","null","<div style=""font-size: 75px;"">+</div>","null","","",""
"","","","","","image-keyboard-response","141","2.0.0","1091069","pyppsqhkjns","16145","stimuli/40_0.jpg","f","response","f","true"
"","","","","","html-keyboard-response","142","2.0.0","1091570","pyppsqhkjns","null","<p style=""border: 5px solid green;"">Correct!</p>","null","","",""
"","","","","","html-keyboard-response","143","2.0.0","1092580","pyppsqhkjns","null","<div style=""font-size: 75px;"">+</div>","null","","",""
"","","","","","image-keyboard-response","144","2.0.0","1100427","pyppsqhkjns","7846","stimuli/5_50.jpg","f","response","f","true"
"","","","","","html-keyboard-response","145","2.0.0","1100939","pyppsqhkjns","null","<p style=""border: 5px solid green;"">Correct!</p>","null","","",""
"","","","","","html-keyboard-response","146","2.0.0","1101948","pyppsqhkjns","null","<div style=""font-size: 75px;"">+</div>","null","","",""
"","","","","","image-keyboard-response","147","2.0.0","1188986","pyppsqhkjns","87040","stimuli/29_50.jpg","f","response","f","true"
"","","","","","html-keyboard-response","148","2.0.0","1189500","pyppsqhkjns","null","<p style=""border: 5px solid green;"">Correct!</p>","null","","",""
"","","","","","html-keyboard-response","149","2.0.0","1219510","pyppsqhkjns","null","<p> Take a break! Experiment continues in 30 seconds . </p>","null","","",""
"","","","","","html-keyboard-response","150","2.0.0","1220526","pyppsqhkjns","null","<div style=""font-size: 75px;"">+</div>","null","","",""
"","","","","","image-keyboard-response","151","2.0.0","1227812","pyppsqhkjns","7285","stimuli/10_150_R.jpg","j","response","j","true"
"","","","","","html-keyboard-response","152","2.0.0","1228324","pyppsqhkjns","null","<p style=""border: 5px solid green;"">Correct!</p>","null","","",""
"","","","","","html-keyboard-response","153","2.0.0","1229332","pyppsqhkjns","null","<div style=""font-size: 75px;"">+</div>","null","","",""
"","","","","","image-keyboard-response","154","2.0.0","1230717","pyppsqhkjns","1384","stimuli/36_50_R.jpg","j","response","j","true"
"","","","","","html-keyboard-response","155","2.0.0","1231218","pyppsqhkjns","null","<p style=""border: 5px solid green;"">Correct!</p>","null","","",""
"","","","","","html-keyboard-response","156","2.0.0","1232229","pyppsqhkjns","null","<div style=""font-size: 75px;"">+</div>","null","","",""
"","","","","","image-keyboard-response","157","2.0.0","1234275","pyppsqhkjns","2045","stimuli/45_0_R.jpg","j","response","j","true"
"","","","","","html-keyboard-response","158","2.0.0","1234782","pyppsqhkjns","null","<p style=""border: 5px solid green;"">Correct!</p>","null","","",""
"","","","","","html-keyboard-response","159","2.0.0","1235796","pyppsqhkjns","null","<div style=""font-size: 75px;"">+</div>","null","","",""
"","","","","","image-keyboard-response","160","2.0.0","1238924","pyppsqhkjns","3127","stimuli/39_100.jpg","f","response","f","true"
"","","","","","html-keyboard-response","161","2.0.0","1239438","pyppsqhkjns","null","<p style=""border: 5px solid green;"">Correct!</p>","null","","",""
"","","","","","html-keyboard-response","162","2.0.0","1240452","pyppsqhkjns","null","<div style=""font-size: 75px;"">+</div>","null","","",""
"","","","","","image-keyboard-response","163","2.0.0","1241700","pyppsqhkjns","1248","stimuli/39_0_R.jpg","f","response","j","false"
"","","","","","html-keyboard-response","164","2.0.0","1242205","pyppsqhkjns","null","<p style=""border: 5px solid red;"">Incorrect.</p>","null","","",""
"","","","","","html-keyboard-response","165","2.0.0","1243219","pyppsqhkjns","null","<div style=""font-size: 75px;"">+</div>","null","","",""
"","","","","","image-keyboard-response","166","2.0.0","1257981","pyppsqhkjns","14762","stimuli/32_150_R.jpg","f","response","j","false"
"","","","","","html-keyboard-response","167","2.0.0","1258489","pyppsqhkjns","null","<p style=""border: 5px solid red;"">Incorrect.</p>","null","","",""
"","","","","","html-keyboard-response","168","2.0.0","1259502","pyppsqhkjns","null","<div style=""font-size: 75px;"">+</div>","null","","",""
"","","","","","image-keyboard-response","169","2.0.0","1268376","pyppsqhkjns","8873","stimuli/13_100_R.jpg","j","response","j","true"
"","","","","","html-keyboard-response","170","2.0.0","1268890","pyppsqhkjns","null","<p style=""border: 5px solid green;"">Correct!</p>","null","","",""
"","","","","","html-keyboard-response","171","2.0.0","1269903","pyppsqhkjns","null","<div style=""font-size: 75px;"">+</div>","null","","",""
"","","","","","image-keyboard-response","172","2.0.0","1283584","pyppsqhkjns","13680","stimuli/36_0_R.jpg","j","response","j","true"
"","","","","","html-keyboard-response","173","2.0.0","1284094","pyppsqhkjns","null","<p style=""border: 5px solid green;"">Correct!</p>","null","","",""
"","","","","","html-keyboard-response","174","2.0.0","1285105","pyppsqhkjns","null","<div style=""font-size: 75px;"">+</div>","null","","",""
"","","","","","image-keyboard-response","175","2.0.0","1288626","pyppsqhkjns","3520","stimuli/30_100_R.jpg","j","response","j","true"
"","","","","","html-keyboard-response","176","2.0.0","1289135","pyppsqhkjns","null","<p style=""border: 5px solid green;"">Correct!</p>","null","","",""
"","","","","","html-keyboard-response","177","2.0.0","1290141","pyppsqhkjns","null","<div style=""font-size: 75px;"">+</div>","null","","",""
"","","","","","image-keyboard-response","178","2.0.0","1292310","pyppsqhkjns","2168","stimuli/34_0_R.jpg","j","response","j","true"
"","","","","","html-keyboard-response","179","2.0.0","1292817","pyppsqhkjns","null","<p style=""border: 5px solid green;"">Correct!</p>","null","","",""
"","","","","","html-keyboard-response","180","2.0.0","1293826","pyppsqhkjns","null","<div style=""font-size: 75px;"">+</div>","null","","",""
"","","","","","image-keyboard-response","181","2.0.0","1295231","pyppsqhkjns","1404","stimuli/13_0_R.jpg","j","response","j","true"
"","","","","","html-keyboard-response","182","2.0.0","1295739","pyppsqhkjns","null","<p style=""border: 5px solid green;"">Correct!</p>","null","","",""
"","","","","","html-keyboard-response","183","2.0.0","1296753","pyppsqhkjns","null","<div style=""font-size: 75px;"">+</div>","null","","",""
"","","","","","image-keyboard-response","184","2.0.0","1297704","pyppsqhkjns","950","stimuli/2_0.jpg","f","response","f","true"
"","","","","","html-keyboard-response","185","2.0.0","1298213","pyppsqhkjns","null","<p style=""border: 5px solid green;"">Correct!</p>","null","","",""
"","","","","","html-keyboard-response","186","2.0.0","1299226","pyppsqhkjns","null","<div style=""font-size: 75px;"">+</div>","null","","",""
"","","","","","image-keyboard-response","187","2.0.0","1301182","pyppsqhkjns","1955","stimuli/3_50.jpg","f","response","f","true"
"","","","","","html-keyboard-response","188","2.0.0","1301698","pyppsqhkjns","null","<p style=""border: 5px solid green;"">Correct!</p>","null","","",""
"","","","","","html-keyboard-response","189","2.0.0","1302712","pyppsqhkjns","null","<div style=""font-size: 75px;"">+</div>","null","","",""
"","","","","","image-keyboard-response","190","2.0.0","1304990","pyppsqhkjns","2277","stimuli/43_50_R.jpg","j","response","j","true"
"","","","","","html-keyboard-response","191","2.0.0","1305494","pyppsqhkjns","null","<p style=""border: 5px solid green;"">Correct!</p>","null","","",""
"","","","","","html-keyboard-response","192","2.0.0","1306505","pyppsqhkjns","null","<div style=""font-size: 75px;"">+</div>","null","","",""
"","","","","","image-keyboard-response","193","2.0.0","1308770","pyppsqhkjns","2265","stimuli/18_50.jpg","f","response","f","true"
"","","","","","html-keyboard-response","194","2.0.0","1309271","pyppsqhkjns","null","<p style=""border: 5px solid green;"">Correct!</p>","null","","",""
"","","","","","html-keyboard-response","195","2.0.0","1310284","pyppsqhkjns","null","<div style=""font-size: 75px;"">+</div>","null","","",""
"","","","","","image-keyboard-response","196","2.0.0","1314003","pyppsqhkjns","3718","stimuli/22_150.jpg","j","response","f","false"
"","","","","","html-keyboard-response","197","2.0.0","1314514","pyppsqhkjns","null","<p style=""border: 5px solid red;"">Incorrect.</p>","null","","",""
"","","","","","html-keyboard-response","198","2.0.0","1315522","pyppsqhkjns","null","<div style=""font-size: 75px;"">+</div>","null","","",""
"","","","","","image-keyboard-response","199","2.0.0","1321168","pyppsqhkjns","5647","stimuli/35_50_R.jpg","j","response","j","true"
"","","","","","html-keyboard-response","200","2.0.0","1321673","pyppsqhkjns","null","<p style=""border: 5px solid green;"">Correct!</p>","null","","",""
"","","","","","html-keyboard-response","201","2.0.0","1322675","pyppsqhkjns","null","<div style=""font-size: 75px;"">+</div>","null","","",""
"","","","","","image-keyboard-response","202","2.0.0","1326418","pyppsqhkjns","3742","stimuli/25_100_R.jpg","j","response","j","true"
"","","","","","html-keyboard-response","203","2.0.0","1326925","pyppsqhkjns","null","<p style=""border: 5px solid green;"">Correct!</p>","null","","",""
"","","","","","html-keyboard-response","204","2.0.0","1327939","pyppsqhkjns","null","<div style=""font-size: 75px;"">+</div>","null","","",""
"","","","","","image-keyboard-response","205","2.0.0","1330147","pyppsqhkjns","2206","stimuli/34_100_R.jpg","j","response","j","true"
"","","","","","html-keyboard-response","206","2.0.0","1330661","pyppsqhkjns","null","<p style=""border: 5px solid green;"">Correct!</p>","null","","",""
"","","","","","html-keyboard-response","207","2.0.0","1331669","pyppsqhkjns","null","<div style=""font-size: 75px;"">+</div>","null","","",""
"","","","","","image-keyboard-response","208","2.0.0","1334213","pyppsqhkjns","2543","stimuli/16_100_R.jpg","j","response","j","true"
"","","","","","html-keyboard-response","209","2.0.0","1334719","pyppsqhkjns","null","<p style=""border: 5px solid green;"">Correct!</p>","null","","",""
"","","","","","html-keyboard-response","210","2.0.0","1335733","pyppsqhkjns","null","<div style=""font-size: 75px;"">+</div>","null","","",""
"","","","","","image-keyboard-response","211","2.0.0","1336764","pyppsqhkjns","1030","stimuli/28_50.jpg","f","response","f","true"
"","","","","","html-keyboard-response","212","2.0.0","1337273","pyppsqhkjns","null","<p style=""border: 5px solid green;"">Correct!</p>","null","","",""
"","","","","","html-keyboard-response","213","2.0.0","1338289","pyppsqhkjns","null","<div style=""font-size: 75px;"">+</div>","null","","",""
"","","","","","image-keyboard-response","214","2.0.0","1339167","pyppsqhkjns","878","stimuli/21_50_R.jpg","j","response","j","true"
"","","","","","html-keyboard-response","215","2.0.0","1339679","pyppsqhkjns","null","<p style=""border: 5px solid green;"">Correct!</p>","null","","",""
"","","","","","html-keyboard-response","216","2.0.0","1340689","pyppsqhkjns","null","<div style=""font-size: 75px;"">+</div>","null","","",""
"","","","","","image-keyboard-response","217","2.0.0","1341516","pyppsqhkjns","826","stimuli/19_150_R.jpg","j","response","j","true"
"","","","","","html-keyboard-response","218","2.0.0","1342029","pyppsqhkjns","null","<p style=""border: 5px solid green;"">Correct!</p>","null","","",""
"","","","","","html-keyboard-response","219","2.0.0","1343042","pyppsqhkjns","null","<div style=""font-size: 75px;"">+</div>","null","","",""
"","","","","","image-keyboard-response","220","2.0.0","1343996","pyppsqhkjns","953","stimuli/25_150_R.jpg","f","response","j","false"
"","","","","","html-keyboard-response","221","2.0.0","1344504","pyppsqhkjns","null","<p style=""border: 5px solid red;"">Incorrect.</p>","null","","",""
"","","","","","html-keyboard-response","222","2.0.0","1345518","pyppsqhkjns","null","<div style=""font-size: 75px;"">+</div>","null","","",""
"","","","","","image-keyboard-response","223","2.0.0","1349594","pyppsqhkjns","4076","stimuli/45_150.jpg","f","response","f","true"
"","","","","","html-keyboard-response","224","2.0.0","1350110","pyppsqhkjns","null","<p style=""border: 5px solid green;"">Correct!</p>","null","","",""
"","","","","","html-keyboard-response","225","2.0.0","1351119","pyppsqhkjns","null","<div style=""font-size: 75px;"">+</div>","null","","",""
"","","","","","image-keyboard-response","226","2.0.0","1355253","pyppsqhkjns","4133","stimuli/35_150_R.jpg","j","response","j","true"
"","","","","","html-keyboard-response","227","2.0.0","1355766","pyppsqhkjns","null","<p style=""border: 5px solid green;"">Correct!</p>","null","","",""
"","","","","","html-keyboard-response","228","2.0.0","1356780","pyppsqhkjns","null","<div style=""font-size: 75px;"">+</div>","null","","",""
"","","","","","image-keyboard-response","229","2.0.0","1359090","pyppsqhkjns","2308","stimuli/2_0_R.jpg","j","response","j","true"
"","","","","","html-keyboard-response","230","2.0.0","1359601","pyppsqhkjns","null","<p style=""border: 5px solid green;"">Correct!</p>","null","","",""
"","","","","","html-keyboard-response","231","2.0.0","1360615","pyppsqhkjns","null","<div style=""font-size: 75px;"">+</div>","null","","",""
"","","","","","image-keyboard-response","232","2.0.0","1366542","pyppsqhkjns","5927","stimuli/48_50_R.jpg","j","response","j","true"
"","","","","","html-keyboard-response","233","2.0.0","1367059","pyppsqhkjns","null","<p style=""border: 5px solid green;"">Correct!</p>","null","","",""
"","","","","","html-keyboard-response","234","2.0.0","1368074","pyppsqhkjns","null","<div style=""font-size: 75px;"">+</div>","null","","",""
"","","","","","image-keyboard-response","235","2.0.0","1370489","pyppsqhkjns","2414","stimuli/15_150.jpg","j","response","f","false"
"","","","","","html-keyboard-response","236","2.0.0","1370991","pyppsqhkjns","null","<p style=""border: 5px solid red;"">Incorrect.</p>","null","","",""
"","","","","","html-keyboard-response","237","2.0.0","1371999","pyppsqhkjns","null","<div style=""font-size: 75px;"">+</div>","null","","",""
"","","","","","image-keyboard-response","238","2.0.0","1372877","pyppsqhkjns","877","stimuli/8_0.jpg","f","response","f","true"
"","","","","","html-keyboard-response","239","2.0.0","1373391","pyppsqhkjns","null","<p style=""border: 5px solid green;"">Correct!</p>","null","","",""
"","","","","","html-keyboard-response","240","2.0.0","1374393","pyppsqhkjns","null","<div style=""font-size: 75px;"">+</div>","null","","",""
"","","","","","image-keyboard-response","241","2.0.0","1381050","pyppsqhkjns","6657","stimuli/30_50.jpg","f","response","f","true"
"","","","","","html-keyboard-response","242","2.0.0","1381555","pyppsqhkjns","null","<p style=""border: 5px solid green;"">Correct!</p>","null","","",""
"","","","","","html-keyboard-response","243","2.0.0","1382567","pyppsqhkjns","null","<div style=""font-size: 75px;"">+</div>","null","","",""
"","","","","","image-keyboard-response","244","2.0.0","1399523","pyppsqhkjns","16954","stimuli/16_0.jpg","f","response","f","true"
"","","","","","html-keyboard-response","245","2.0.0","1400028","pyppsqhkjns","null","<p style=""border: 5px solid green;"">Correct!</p>","null","","",""
"","","","","","html-keyboard-response","246","2.0.0","1401041","pyppsqhkjns","null","<div style=""font-size: 75px;"">+</div>","null","","",""
"","","","","","image-keyboard-response","247","2.0.0","1403410","pyppsqhkjns","2368","stimuli/4_100.jpg","f","response","f","true"
"","","","","","html-keyboard-response","248","2.0.0","1403922","pyppsqhkjns","null","<p style=""border: 5px solid green;"">Correct!</p>","null","","",""
"","","","","","html-keyboard-response","249","2.0.0","1404935","pyppsqhkjns","null","<div style=""font-size: 75px;"">+</div>","null","","",""
"","","","","","image-keyboard-response","250","2.0.0","1406784","pyppsqhkjns","1847","stimuli/42_50.jpg","f","response","f","true"
"","","","","","html-keyboard-response","251","2.0.0","1407286","pyppsqhkjns","null","<p style=""border: 5px solid green;"">Correct!</p>","null","","",""
"","","","","","html-keyboard-response","252","2.0.0","1408298","pyppsqhkjns","null","<div style=""font-size: 75px;"">+</div>","null","","",""
"","","","","","image-keyboard-response","253","2.0.0","1409075","pyppsqhkjns","776","stimuli/23_50_R.jpg","j","response","j","true"
"","","","","","html-keyboard-response","254","2.0.0","1409580","pyppsqhkjns","null","<p style=""border: 5px solid green;"">Correct!</p>","null","","",""
"","","","","","html-keyboard-response","255","2.0.0","1410588","pyppsqhkjns","null","<div style=""font-size: 75px;"">+</div>","null","","",""
"","","","","","image-keyboard-response","256","2.0.0","1412782","pyppsqhkjns","2193","stimuli/3_100.jpg","f","response","f","true"
"","","","","","html-keyboard-response","257","2.0.0","1413297","pyppsqhkjns","null","<p style=""border: 5px solid green;"">Correct!</p>","null","","",""
"","","","","","html-keyboard-response","258","2.0.0","1414310","pyppsqhkjns","null","<div style=""font-size: 75px;"">+</div>","null","","",""
"","","","","","image-keyboard-response","259","2.0.0","1415934","pyppsqhkjns","1623","stimuli/4_50_R.jpg","j","response","j","true"
"","","","","","html-keyboard-response","260","2.0.0","1416445","pyppsqhkjns","null","<p style=""border: 5px solid green;"">Correct!</p>","null","","",""
"","","","","","html-keyboard-response","261","2.0.0","1417453","pyppsqhkjns","null","<div style=""font-size: 75px;"">+</div>","null","","",""
"","","","","","image-keyboard-response","262","2.0.0","1418868","pyppsqhkjns","1413","stimuli/19_50_R.jpg","j","response","j","true"
"","","","","","html-keyboard-response","263","2.0.0","1419379","pyppsqhkjns","null","<p style=""border: 5px solid green;"">Correct!</p>","null","","",""
"","","","","","html-keyboard-response","264","2.0.0","1420392","pyppsqhkjns","null","<div style=""font-size: 75px;"">+</div>","null","","",""
"","","","","","image-keyboard-response","265","2.0.0","1422057","pyppsqhkjns","1664","stimuli/30_0_R.jpg","f","response","j","false"
"","","","","","html-keyboard-response","266","2.0.0","1422562","pyppsqhkjns","null","<p style=""border: 5px solid red;"">Incorrect.</p>","null","","",""
"","","","","","html-keyboard-response","267","2.0.0","1423573","pyppsqhkjns","null","<div style=""font-size: 75px;"">+</div>","null","","",""
"","","","","","image-keyboard-response","268","2.0.0","1426045","pyppsqhkjns","2471","stimuli/27_100.jpg","f","response","f","true"
"","","","","","html-keyboard-response","269","2.0.0","1426546","pyppsqhkjns","null","<p style=""border: 5px solid green;"">Correct!</p>","null","","",""
"","","","","","html-keyboard-response","270","2.0.0","1427557","pyppsqhkjns","null","<div style=""font-size: 75px;"">+</div>","null","","",""
"","","","","","image-keyboard-response","271","2.0.0","1429219","pyppsqhkjns","1661","stimuli/44_100.jpg","f","response","f","true"
"","","","","","html-keyboard-response","272","2.0.0","1429721","pyppsqhkjns","null","<p style=""border: 5px solid green;"">Correct!</p>","null","","",""
"","","","","","html-keyboard-response","273","2.0.0","1430730","pyppsqhkjns","null","<div style=""font-size: 75px;"">+</div>","null","","",""
"","","","","","image-keyboard-response","274","2.0.0","1434937","pyppsqhkjns","4205","stimuli/32_150.jpg","f","response","f","true"
"","","","","","html-keyboard-response","275","2.0.0","1435441","pyppsqhkjns","null","<p style=""border: 5px solid green;"">Correct!</p>","null","","",""
"","","","","","html-keyboard-response","276","2.0.0","1436452","pyppsqhkjns","null","<div style=""font-size: 75px;"">+</div>","null","","",""
"","","","","","image-keyboard-response","277","2.0.0","1438341","pyppsqhkjns","1888","stimuli/8_100_R.jpg","j","response","j","true"
"","","","","","html-keyboard-response","278","2.0.0","1438849","pyppsqhkjns","null","<p style=""border: 5px solid green;"">Correct!</p>","null","","",""
"","","","","","html-keyboard-response","279","2.0.0","1439857","pyppsqhkjns","null","<div style=""font-size: 75px;"">+</div>","null","","",""
"","","","","","image-keyboard-response","280","2.0.0","1440922","pyppsqhkjns","1064","stimuli/20_0_R.jpg","f","response","j","false"
"","","","","","html-keyboard-response","281","2.0.0","1441434","pyppsqhkjns","null","<p style=""border: 5px solid red;"">Incorrect.</p>","null","","",""
"","","","","","html-keyboard-response","282","2.0.0","1442444","pyppsqhkjns","null","<div style=""font-size: 75px;"">+</div>","null","","",""
"","","","","","image-keyboard-response","283","2.0.0","1444815","pyppsqhkjns","2371","stimuli/4_100_R.jpg","j","response","j","true"
"","","","","","html-keyboard-response","284","2.0.0","1445326","pyppsqhkjns","null","<p style=""border: 5px solid green;"">Correct!</p>","null","","",""
"","","","","","html-keyboard-response","285","2.0.0","1446338","pyppsqhkjns","null","<div style=""font-size: 75px;"">+</div>","null","","",""
"","","","","","image-keyboard-response","286","2.0.0","1447439","pyppsqhkjns","1100","stimuli/41_0.jpg","f","response","f","true"
"","","","","","html-keyboard-response","287","2.0.0","1447941","pyppsqhkjns","null","<p style=""border: 5px solid green;"">Correct!</p>","null","","",""
"","","","","","html-keyboard-response","288","2.0.0","1448951","pyppsqhkjns","null","<div style=""font-size: 75px;"">+</div>","null","","",""
"","","","","","image-keyboard-response","289","2.0.0","1450885","pyppsqhkjns","1934","stimuli/45_100.jpg","f","response","f","true"
"","","","","","html-keyboard-response","290","2.0.0","1451391","pyppsqhkjns","null","<p style=""border: 5px solid green;"">Correct!</p>","null","","",""
"","","","","","html-keyboard-response","291","2.0.0","1452402","pyppsqhkjns","null","<div style=""font-size: 75px;"">+</div>","null","","",""
"","","","","","image-keyboard-response","292","2.0.0","1455406","pyppsqhkjns","3003","stimuli/10_100.jpg","f","response","f","true"
"","","","","","html-keyboard-response","293","2.0.0","1455909","pyppsqhkjns","null","<p style=""border: 5px solid green;"">Correct!</p>","null","","",""
"","","","","","html-keyboard-response","294","2.0.0","1459146","pyppsqhkjns","3236","<p>Thank you for participating!</p><p>Please press space to answer our survey.</p>"," ","","",""
"","","","","","survey-html-form","295","null","1532226","pyppsqhkjns","73079","","{""response_1"":""Clear and lively"",""response_2"":""Clear and lively"",""response_3"":""Clear and lively"",""response_4"":""Clear and lively"",""response_5"":""Clear and lively"",""response_6"":""Clear and lively"",""response_7"":""Clear and lively"",""response_8"":""Clear and lively"",""response_9"":""Clear and lively"",""response_10"":""Moderately clear and lively"",""response_11"":""Clear and lively"",""response_12"":""Clear and lively"",""response_13"":""Clear and lively"",""response_14"":""Clear and lively"",""response_15"":""Clear and lively"",""response_16"":""Clear and lively""}","","",""
"","","","","","survey-html-form","296","null","1556197","pyppsqhkjns","23970","","{""age"":""22"",""gender"":""female"",""education"":""some-college"",""handedness"":""right"",""vision"":""normal"",""technical_difficulties"":"""",""knowledge_check"":""""}","","",""
