"success","timeout","failed_images","failed_audio","failed_video","trial_type","trial_index","plugin_version","time_elapsed","random_id","rt","stimulus","response","task","correct_response","correct"
"true","false","[]","[]","[]","preload","0","2.0.0","1287","pzeayncdz0u","","","","","",""
"true","","","","","fullscreen","1","2.0.0","12339","pzeayncdz0u","10050","","","","",""
"","","","","","html-keyboard-response","2","2.0.0","35536","pzeayncdz0u","23196","Welcome to the experiment. Press any key to begin."," ","","",""
"","","","","","survey-text","3","2.0.0","46057","pzeayncdz0u","10517","","{""participant_id"":""badger""}","","",""
"","","","","","html-keyboard-response","4","2.0.0","59783","pzeayncdz0u","13726","
        <p>Welcome to the experiment.</p>
        <p>In this task, you will see pairs of images.</p>
        <p>Your job is to determine whether the image on the right is a rotated version of the image on the left.</p>
        <p>Press the <strong>F</strong> key if the images are the same.</p>
        <p>Press the <strong>J</strong> key if the images are different.</p>
        <p>Press any key to begin.</p>
    "," ","","",""
"","","","","","html-keyboard-response","5","2.0.0","60785","pzeayncdz0u","null","<div style=""font-size: 75px;"">+</div>","null","","",""
"","","","","","image-keyboard-response","6","2.0.0","64725","pzeayncdz0u","3936","stimuli/20_0.jpg","f","response","f","true"
"","","","","","html-keyboard-response","7","2.0.0","65227","pzeayncdz0u","null","<p style=""border: 5px solid green;"">Correct!</p>","null","","",""
"","","","","","html-keyboard-response","8","2.0.0","66230","pzeayncdz0u","null","<div style=""font-size: 75px;"">+</div>","null","","",""
"","","","","","image-keyboard-response","9","2.0.0","69525","pzeayncdz0u","3293","stimuli/5_150_R.jpg","f","response","j","false"
"","","","","","html-keyboard-response","10","2.0.0","70027","pzeayncdz0u","null","<p style=""border: 5px solid red;"">Incorrect.</p>","null","","",""
"","","","","","html-keyboard-response","11","2.0.0","71030","pzeayncdz0u","null","<div style=""font-size: 75px;"">+</div>","null","","",""
"","","","","","image-keyboard-response","12","2.0.0","77149","pzeayncdz0u","6117","stimuli/16_100.jpg","j","response","f","false"
"","","","","","html-keyboard-response","13","2.0.0","77650","pzeayncdz0u","null","<p style=""border: 5px solid red;"">Incorrect.</p>","null","","",""
"","","","","","html-keyboard-response","14","2.0.0","78652","pzeayncdz0u","null","<div style=""font-size: 75px;"">+</div>","null","","",""
"","","","","","image-keyboard-response","15","2.0.0","82169","pzeayncdz0u","3516","stimuli/13_100.jpg","f","response","f","true"
"","","","","","html-keyboard-response","16","2.0.0","82671","pzeayncdz0u","null","<p style=""border: 5px solid green;"">Correct!</p>","null","","",""
"","","","","","html-keyboard-response","17","2.0.0","83673","pzeayncdz0u","null","<div style=""font-size: 75px;"">+</div>","null","","",""
"","","","","","image-keyboard-response","18","2.0.0","87813","pzeayncdz0u","4139","stimuli/45_50.jpg","f","response","f","true"
"","","","","","html-keyboard-response","19","2.0.0","88315","pzeayncdz0u","null","<p style=""border: 5px solid green;"">Correct!</p>","null","","",""
"","","","","","html-keyboard-response","20","2.0.0","89317","pzeayncdz0u","null","<div style=""font-size: 75px;"">+</div>","null","","",""
"","","","","","image-keyboard-response","21","2.0.0","91574","pzeayncdz0u","2255","stimuli/48_100.jpg","f","response","f","true"
"","","","","","html-keyboard-response","22","2.0.0","92076","pzeayncdz0u","null","<p style=""border: 5px solid green;"">Correct!</p>","null","","",""
"","","","","","html-keyboard-response","23","2.0.0","93078","pzeayncdz0u","null","<div style=""font-size: 75px;"">+</div>","null","","",""
"","","","","","image-keyboard-response","24","2.0.0","99079","pzeayncdz0u","6000","stimuli/41_150_R.jpg","f","response","j","false"
"","","","","","html-keyboard-response","25","2.0.0","99581","pzeayncdz0u","null","<p style=""border: 5px solid red;"">Incorrect.</p>","null","","",""
"","","","","","html-keyboard-response","26","2.0.0","100582","pzeayncdz0u","null","<div style=""font-size: 75px;"">+</div>","null","","",""
"","","","","","image-keyboard-response","27","2.0.0","103675","pzeayncdz0u","3092","stimuli/18_150_R.jpg","j","response","j","true"
"","","","","","html-keyboard-response","28","2.0.0","104176","pzeayncdz0u","null","<p style=""border: 5px solid green;"">Correct!</p>","null","","",""
"","","","","","html-keyboard-response","29","2.0.0","105182","pzeayncdz0u","null","<div style=""font-size: 75px;"">+</div>","null","","",""
"","","","","","image-keyboard-response","30","2.0.0","106839","pzeayncdz0u","1656","stimuli/29_50_R.jpg","f","response","j","false"
"","","","","","html-keyboard-response","31","2.0.0","107340","pzeayncdz0u","null","<p style=""border: 5px solid red;"">Incorrect.</p>","null","","",""
"","","","","","html-keyboard-response","32","2.0.0","108343","pzeayncdz0u","null","<div style=""font-size: 75px;"">+</div>","null","","",""
"","","","","","image-keyboard-response","33","2.0.0","109771","pzeayncdz0u","1427","stimuli/27_0.jpg","f","response","f","true"
"","","","","","html-keyboard-response","34","2.0.0","110273","pzeayncdz0u","null","<p style=""border: 5px solid green;"">Correct!</p>","null","","",""
"","","","","","html-keyboard-response","35","2.0.0","111276","pzeayncdz0u","null","<div style=""font-size: 75px;"">+</div>","null","","",""
"","","","","","image-keyboard-response","36","2.0.0","112719","pzeayncdz0u","1442","stimuli/14_100_R.jpg","j","response","j","true"
"","","","","","html-keyboard-response","37","2.0.0","113221","pzeayncdz0u","null","<p style=""border: 5px solid green;"">Correct!</p>","null","","",""
"","","","","","html-keyboard-response","38","2.0.0","114223","pzeayncdz0u","null","<div style=""font-size: 75px;"">+</div>","null","","",""
"","","","","","image-keyboard-response","39","2.0.0","116265","pzeayncdz0u","2041","stimuli/46_0.jpg","f","response","f","true"
"","","","","","html-keyboard-response","40","2.0.0","116766","pzeayncdz0u","null","<p style=""border: 5px solid green;"">Correct!</p>","null","","",""
"","","","","","html-keyboard-response","41","2.0.0","117768","pzeayncdz0u","null","<div style=""font-size: 75px;"">+</div>","null","","",""
"","","","","","image-keyboard-response","42","2.0.0","119934","pzeayncdz0u","2164","stimuli/14_100.jpg","f","response","f","true"
"","","","","","html-keyboard-response","43","2.0.0","120435","pzeayncdz0u","null","<p style=""border: 5px solid green;"">Correct!</p>","null","","",""
"","","","","","html-keyboard-response","44","2.0.0","121437","pzeayncdz0u","null","<div style=""font-size: 75px;"">+</div>","null","","",""
"","","","","","image-keyboard-response","45","2.0.0","124748","pzeayncdz0u","3310","stimuli/2_0_R.jpg","f","response","j","false"
"","","","","","html-keyboard-response","46","2.0.0","125250","pzeayncdz0u","null","<p style=""border: 5px solid red;"">Incorrect.</p>","null","","",""
"","","","","","html-keyboard-response","47","2.0.0","126253","pzeayncdz0u","null","<div style=""font-size: 75px;"">+</div>","null","","",""
"","","","","","image-keyboard-response","48","2.0.0","128179","pzeayncdz0u","1925","stimuli/10_0.jpg","f","response","f","true"
"","","","","","html-keyboard-response","49","2.0.0","128681","pzeayncdz0u","null","<p style=""border: 5px solid green;"">Correct!</p>","null","","",""
"","","","","","html-keyboard-response","50","2.0.0","129683","pzeayncdz0u","null","<div style=""font-size: 75px;"">+</div>","null","","",""
"","","","","","image-keyboard-response","51","2.0.0","131107","pzeayncdz0u","1423","stimuli/45_50_R.jpg","f","response","j","false"
"","","","","","html-keyboard-response","52","2.0.0","131609","pzeayncdz0u","null","<p style=""border: 5px solid red;"">Incorrect.</p>","null","","",""
"","","","","","html-keyboard-response","53","2.0.0","132612","pzeayncdz0u","null","<div style=""font-size: 75px;"">+</div>","null","","",""
"","","","","","image-keyboard-response","54","2.0.0","135470","pzeayncdz0u","2857","stimuli/44_100_R.jpg","f","response","j","false"
"","","","","","html-keyboard-response","55","2.0.0","135971","pzeayncdz0u","null","<p style=""border: 5px solid red;"">Incorrect.</p>","null","","",""
"","","","","","html-keyboard-response","56","2.0.0","136974","pzeayncdz0u","null","<div style=""font-size: 75px;"">+</div>","null","","",""
"","","","","","image-keyboard-response","57","2.0.0","138986","pzeayncdz0u","2011","stimuli/34_100_R.jpg","j","response","j","true"
"","","","","","html-keyboard-response","58","2.0.0","139488","pzeayncdz0u","null","<p style=""border: 5px solid green;"">Correct!</p>","null","","",""
"","","","","","html-keyboard-response","59","2.0.0","140491","pzeayncdz0u","null","<div style=""font-size: 75px;"">+</div>","null","","",""
"","","","","","image-keyboard-response","60","2.0.0","141422","pzeayncdz0u","931","stimuli/30_100_R.jpg","f","response","j","false"
"","","","","","html-keyboard-response","61","2.0.0","141924","pzeayncdz0u","null","<p style=""border: 5px solid red;"">Incorrect.</p>","null","","",""
"","","","","","html-keyboard-response","62","2.0.0","142926","pzeayncdz0u","null","<div style=""font-size: 75px;"">+</div>","null","","",""
"","","","","","image-keyboard-response","63","2.0.0","144082","pzeayncdz0u","1154","stimuli/24_0_R.jpg","f","response","j","false"
"","","","","","html-keyboard-response","64","2.0.0","144584","pzeayncdz0u","null","<p style=""border: 5px solid red;"">Incorrect.</p>","null","","",""
"","","","","","html-keyboard-response","65","2.0.0","145585","pzeayncdz0u","null","<div style=""font-size: 75px;"">+</div>","null","","",""
"","","","","","image-keyboard-response","66","2.0.0","146406","pzeayncdz0u","820","stimuli/34_50_R.jpg","j","response","j","true"
"","","","","","html-keyboard-response","67","2.0.0","146908","pzeayncdz0u","null","<p style=""border: 5px solid green;"">Correct!</p>","null","","",""
"","","","","","html-keyboard-response","68","2.0.0","147910","pzeayncdz0u","null","<div style=""font-size: 75px;"">+</div>","null","","",""
"","","","","","image-keyboard-response","69","2.0.0","149832","pzeayncdz0u","1920","stimuli/3_100_R.jpg","j","response","j","true"
"","","","","","html-keyboard-response","70","2.0.0","150333","pzeayncdz0u","null","<p style=""border: 5px solid green;"">Correct!</p>","null","","",""
"","","","","","html-keyboard-response","71","2.0.0","151336","pzeayncdz0u","null","<div style=""font-size: 75px;"">+</div>","null","","",""
"","","","","","image-keyboard-response","72","2.0.0","154778","pzeayncdz0u","3441","stimuli/11_0.jpg","f","response","f","true"
"","","","","","html-keyboard-response","73","2.0.0","155281","pzeayncdz0u","null","<p style=""border: 5px solid green;"">Correct!</p>","null","","",""
"","","","","","html-keyboard-response","74","2.0.0","156283","pzeayncdz0u","null","<div style=""font-size: 75px;"">+</div>","null","","",""
"","","","","","image-keyboard-response","75","2.0.0","160289","pzeayncdz0u","4004","stimuli/21_150_R.jpg","j","response","j","true"
"","","","","","html-keyboard-response","76","2.0.0","160791","pzeayncdz0u","null","<p style=""border: 5px solid green;"">Correct!</p>","null","","",""
"","","","","","html-keyboard-response","77","2.0.0","161794","pzeayncdz0u","null","<div style=""font-size: 75px;"">+</div>","null","","",""
"","","","","","image-keyboard-response","78","2.0.0","164043","pzeayncdz0u","2248","stimuli/25_0_R.jpg","f","response","j","false"
"","","","","","html-keyboard-response","79","2.0.0","164544","pzeayncdz0u","null","<p style=""border: 5px solid red;"">Incorrect.</p>","null","","",""
"","","","","","html-keyboard-response","80","2.0.0","165547","pzeayncdz0u","null","<div style=""font-size: 75px;"">+</div>","null","","",""
"","","","","","image-keyboard-response","81","2.0.0","167213","pzeayncdz0u","1666","stimuli/8_50.jpg","f","response","f","true"
"","","","","","html-keyboard-response","82","2.0.0","167715","pzeayncdz0u","null","<p style=""border: 5px solid green;"">Correct!</p>","null","","",""
"","","","","","html-keyboard-response","83","2.0.0","168717","pzeayncdz0u","null","<div style=""font-size: 75px;"">+</div>","null","","",""
"","","","","","image-keyboard-response","84","2.0.0","169830","pzeayncdz0u","1112","stimuli/20_150.jpg","j","response","f","false"
"","","","","","html-keyboard-response","85","2.0.0","170332","pzeayncdz0u","null","<p style=""border: 5px solid red;"">Incorrect.</p>","null","","",""
"","","","","","html-keyboard-response","86","2.0.0","171335","pzeayncdz0u","null","<div style=""font-size: 75px;"">+</div>","null","","",""
"","","","","","image-keyboard-response","87","2.0.0","173263","pzeayncdz0u","1927","stimuli/17_50.jpg","f","response","f","true"
"","","","","","html-keyboard-response","88","2.0.0","173765","pzeayncdz0u","null","<p style=""border: 5px solid green;"">Correct!</p>","null","","",""
"","","","","","html-keyboard-response","89","2.0.0","174768","pzeayncdz0u","null","<div style=""font-size: 75px;"">+</div>","null","","",""
"","","","","","image-keyboard-response","90","2.0.0","175904","pzeayncdz0u","1135","stimuli/2_150_R.jpg","f","response","j","false"
"","","","","","html-keyboard-response","91","2.0.0","176405","pzeayncdz0u","null","<p style=""border: 5px solid red;"">Incorrect.</p>","null","","",""
"","","","","","html-keyboard-response","92","2.0.0","177408","pzeayncdz0u","null","<div style=""font-size: 75px;"">+</div>","null","","",""
"","","","","","image-keyboard-response","93","2.0.0","178440","pzeayncdz0u","1032","stimuli/43_150.jpg","f","response","f","true"
"","","","","","html-keyboard-response","94","2.0.0","178942","pzeayncdz0u","null","<p style=""border: 5px solid green;"">Correct!</p>","null","","",""
"","","","","","html-keyboard-response","95","2.0.0","179944","pzeayncdz0u","null","<div style=""font-size: 75px;"">+</div>","null","","",""
"","","","","","image-keyboard-response","96","2.0.0","181400","pzeayncdz0u","1455","stimuli/42_100_R.jpg","j","response","j","true"
"","","","","","html-keyboard-response","97","2.0.0","181902","pzeayncdz0u","null","<p style=""border: 5px solid green;"">Correct!</p>","null","","",""
"","","","","","html-keyboard-response","98","2.0.0","182905","pzeayncdz0u","null","<div style=""font-size: 75px;"">+</div>","null","","",""
"","","","","","image-keyboard-response","99","2.0.0","186307","pzeayncdz0u","3401","stimuli/22_100_R.jpg","f","response","j","false"
"","","","","","html-keyboard-response","100","2.0.0","186808","pzeayncdz0u","null","<p style=""border: 5px solid red;"">Incorrect.</p>","null","","",""
"","","","","","html-keyboard-response","101","2.0.0","187810","pzeayncdz0u","null","<div style=""font-size: 75px;"">+</div>","null","","",""
"","","","","","image-keyboard-response","102","2.0.0","190267","pzeayncdz0u","2457","stimuli/26_50_R.jpg","f","response","j","false"
"","","","","","html-keyboard-response","103","2.0.0","190769","pzeayncdz0u","null","<p style=""border: 5px solid red;"">Incorrect.</p>","null","","",""
"","","","","","html-keyboard-response","104","2.0.0","191772","pzeayncdz0u","null","<div style=""font-size: 75px;"">+</div>","null","","",""
"","","","","","image-keyboard-response","105","2.0.0","192406","pzeayncdz0u","633","stimuli/15_150.jpg","f","response","f","true"
"","","","","","html-keyboard-response","106","2.0.0","192908","pzeayncdz0u","null","<p style=""border: 5px solid green;"">Correct!</p>","null","","",""
"","","","","","html-keyboard-response","107","2.0.0","193909","pzeayncdz0u","null","<div style=""font-size: 75px;"">+</div>","null","","",""
"","","","","","image-keyboard-response","108","2.0.0","199978","pzeayncdz0u","6067","stimuli/5_0_R.jpg","j","response","j","true"
"","","","","","html-keyboard-response","109","2.0.0","200481","pzeayncdz0u","null","<p style=""border: 5px solid green;"">Correct!</p>","null","","",""
"","","","","","html-keyboard-response","110","2.0.0","201483","pzeayncdz0u","null","<div style=""font-size: 75px;"">+</div>","null","","",""
"","","","","","image-keyboard-response","111","2.0.0","203096","pzeayncdz0u","1612","stimuli/16_0_R.jpg","f","response","j","false"
"","","","","","html-keyboard-response","112","2.0.0","203598","pzeayncdz0u","null","<p style=""border: 5px solid red;"">Incorrect.</p>","null","","",""
"","","","","","html-keyboard-response","113","2.0.0","204600","pzeayncdz0u","null","<div style=""font-size: 75px;"">+</div>","null","","",""
"","","","","","image-keyboard-response","114","2.0.0","205820","pzeayncdz0u","1219","stimuli/26_150_R.jpg","j","response","j","true"
"","","","","","html-keyboard-response","115","2.0.0","206322","pzeayncdz0u","null","<p style=""border: 5px solid green;"">Correct!</p>","null","","",""
"","","","","","html-keyboard-response","116","2.0.0","207324","pzeayncdz0u","null","<div style=""font-size: 75px;"">+</div>","null","","",""
"","","","","","image-keyboard-response","117","2.0.0","210896","pzeayncdz0u","3571","stimuli/21_0_R.jpg","f","response","j","false"
"","","","","","html-keyboard-response","118","2.0.0","211398","pzeayncdz0u","null","<p style=""border: 5px solid red;"">Incorrect.</p>","null","","",""
"","","","","","html-keyboard-response","119","2.0.0","212399","pzeayncdz0u","null","<div style=""font-size: 75px;"">+</div>","null","","",""
"","","","","","image-keyboard-response","120","2.0.0","214062","pzeayncdz0u","1661","stimuli/3_0_R.jpg","j","response","j","true"
"","","","","","html-keyboard-response","121","2.0.0","214564","pzeayncdz0u","null","<p style=""border: 5px solid green;"">Correct!</p>","null","","",""
"","","","","","html-keyboard-response","122","2.0.0","215566","pzeayncdz0u","null","<div style=""font-size: 75px;"">+</div>","null","","",""
"","","","","","image-keyboard-response","123","2.0.0","216296","pzeayncdz0u","729","stimuli/20_100_R.jpg","j","response","j","true"
"","","","","","html-keyboard-response","124","2.0.0","216798","pzeayncdz0u","null","<p style=""border: 5px solid green;"">Correct!</p>","null","","",""
"","","","","","html-keyboard-response","125","2.0.0","217800","pzeayncdz0u","null","<div style=""font-size: 75px;"">+</div>","null","","",""
"","","","","","image-keyboard-response","126","2.0.0","219515","pzeayncdz0u","1714","stimuli/25_100.jpg","j","response","f","false"
"","","","","","html-keyboard-response","127","2.0.0","220017","pzeayncdz0u","null","<p style=""border: 5px solid red;"">Incorrect.</p>","null","","",""
"","","","","","html-keyboard-response","128","2.0.0","221020","pzeayncdz0u","null","<div style=""font-size: 75px;"">+</div>","null","","",""
"","","","","","image-keyboard-response","129","2.0.0","223175","pzeayncdz0u","2153","stimuli/22_0.jpg","f","response","f","true"
"","","","","","html-keyboard-response","130","2.0.0","223677","pzeayncdz0u","null","<p style=""border: 5px solid green;"">Correct!</p>","null","","",""
"","","","","","html-keyboard-response","131","2.0.0","224681","pzeayncdz0u","null","<div style=""font-size: 75px;"">+</div>","null","","",""
"","","","","","image-keyboard-response","132","2.0.0","232630","pzeayncdz0u","7948","stimuli/36_50_R.jpg","f","response","j","false"
"","","","","","html-keyboard-response","133","2.0.0","233133","pzeayncdz0u","null","<p style=""border: 5px solid red;"">Incorrect.</p>","null","","",""
"","","","","","html-keyboard-response","134","2.0.0","234135","pzeayncdz0u","null","<div style=""font-size: 75px;"">+</div>","null","","",""
"","","","","","image-keyboard-response","135","2.0.0","235508","pzeayncdz0u","1372","stimuli/31_150_R.jpg","j","response","j","true"
"","","","","","html-keyboard-response","136","2.0.0","236009","pzeayncdz0u","null","<p style=""border: 5px solid green;"">Correct!</p>","null","","",""
"","","","","","html-keyboard-response","137","2.0.0","237012","pzeayncdz0u","null","<div style=""font-size: 75px;"">+</div>","null","","",""
"","","","","","image-keyboard-response","138","2.0.0","238335","pzeayncdz0u","1322","stimuli/1_50_R.jpg","f","response","j","false"
"","","","","","html-keyboard-response","139","2.0.0","238836","pzeayncdz0u","null","<p style=""border: 5px solid red;"">Incorrect.</p>","null","","",""
"","","","","","html-keyboard-response","140","2.0.0","239839","pzeayncdz0u","null","<div style=""font-size: 75px;"">+</div>","null","","",""
"","","","","","image-keyboard-response","141","2.0.0","241516","pzeayncdz0u","1676","stimuli/15_50.jpg","j","response","f","false"
"","","","","","html-keyboard-response","142","2.0.0","242017","pzeayncdz0u","null","<p style=""border: 5px solid red;"">Incorrect.</p>","null","","",""
"","","","","","html-keyboard-response","143","2.0.0","243019","pzeayncdz0u","null","<div style=""font-size: 75px;"">+</div>","null","","",""
"","","","","","image-keyboard-response","144","2.0.0","244369","pzeayncdz0u","1349","stimuli/37_150_R.jpg","j","response","j","true"
"","","","","","html-keyboard-response","145","2.0.0","244872","pzeayncdz0u","null","<p style=""border: 5px solid green;"">Correct!</p>","null","","",""
"","","","","","html-keyboard-response","146","2.0.0","245874","pzeayncdz0u","null","<div style=""font-size: 75px;"">+</div>","null","","",""
"","","","","","image-keyboard-response","147","2.0.0","247593","pzeayncdz0u","1718","stimuli/20_50.jpg","f","response","f","true"
"","","","","","html-keyboard-response","148","2.0.0","248095","pzeayncdz0u","null","<p style=""border: 5px solid green;"">Correct!</p>","null","","",""
"","","","","","html-keyboard-response","149","2.0.0","278097","pzeayncdz0u","null","<p> Take a break! Experiment continues in 30 seconds . </p>","null","","",""
"","","","","","html-keyboard-response","150","2.0.0","279099","pzeayncdz0u","null","<div style=""font-size: 75px;"">+</div>","null","","",""
"","","","","","image-keyboard-response","151","2.0.0","281692","pzeayncdz0u","2591","stimuli/11_150.jpg","f","response","f","true"
"","","","","","html-keyboard-response","152","2.0.0","282195","pzeayncdz0u","null","<p style=""border: 5px solid green;"">Correct!</p>","null","","",""
"","","","","","html-keyboard-response","153","2.0.0","283198","pzeayncdz0u","null","<div style=""font-size: 75px;"">+</div>","null","","",""
"","","","","","image-keyboard-response","154","2.0.0","284451","pzeayncdz0u","1253","stimuli/19_150_R.jpg","f","response","j","false"
"","","","","","html-keyboard-response","155","2.0.0","284953","pzeayncdz0u","null","<p style=""border: 5px solid red;"">Incorrect.</p>","null","","",""
"","","","","","html-keyboard-response","156","2.0.0","285955","pzeayncdz0u","null","<div style=""font-size: 75px;"">+</div>","null","","",""
"","","","","","image-keyboard-response","157","2.0.0","286770","pzeayncdz0u","814","stimuli/28_0.jpg","f","response","f","true"
"","","","","","html-keyboard-response","158","2.0.0","287271","pzeayncdz0u","null","<p style=""border: 5px solid green;"">Correct!</p>","null","","",""
"","","","","","html-keyboard-response","159","2.0.0","288273","pzeayncdz0u","null","<div style=""font-size: 75px;"">+</div>","null","","",""
"","","","","","image-keyboard-response","160","2.0.0","290750","pzeayncdz0u","2475","stimuli/3_50.jpg","f","response","f","true"
"","","","","","html-keyboard-response","161","2.0.0","291252","pzeayncdz0u","null","<p style=""border: 5px solid green;"">Correct!</p>","null","","",""
"","","","","","html-keyboard-response","162","2.0.0","292255","pzeayncdz0u","null","<div style=""font-size: 75px;"">+</div>","null","","",""
"","","","","","image-keyboard-response","163","2.0.0","294441","pzeayncdz0u","2185","stimuli/43_0.jpg","f","response","f","true"
"","","","","","html-keyboard-response","164","2.0.0","294943","pzeayncdz0u","null","<p style=""border: 5px solid green;"">Correct!</p>","null","","",""
"","","","","","html-keyboard-response","165","2.0.0","295946","pzeayncdz0u","null","<div style=""font-size: 75px;"">+</div>","null","","",""
"","","","","","image-keyboard-response","166","2.0.0","303093","pzeayncdz0u","7146","stimuli/15_50_R.jpg","f","response","j","false"
"","","","","","html-keyboard-response","167","2.0.0","303596","pzeayncdz0u","null","<p style=""border: 5px solid red;"">Incorrect.</p>","null","","",""
"","","","","","html-keyboard-response","168","2.0.0","304598","pzeayncdz0u","null","<div style=""font-size: 75px;"">+</div>","null","","",""
"","","","","","image-keyboard-response","169","2.0.0","305718","pzeayncdz0u","1120","stimuli/1_150.jpg","f","response","f","true"
"","","","","","html-keyboard-response","170","2.0.0","306221","pzeayncdz0u","null","<p style=""border: 5px solid green;"">Correct!</p>","null","","",""
"","","","","","html-keyboard-response","171","2.0.0","307224","pzeayncdz0u","null","<div style=""font-size: 75px;"">+</div>","null","","",""
"","","","","","image-keyboard-response","172","2.0.0","308372","pzeayncdz0u","1147","stimuli/27_50.jpg","f","response","f","true"
"","","","","","html-keyboard-response","173","2.0.0","308873","pzeayncdz0u","null","<p style=""border: 5px solid green;"">Correct!</p>","null","","",""
"","","","","","html-keyboard-response","174","2.0.0","309876","pzeayncdz0u","null","<div style=""font-size: 75px;"">+</div>","null","","",""
"","","","","","image-keyboard-response","175","2.0.0","312138","pzeayncdz0u","2261","stimuli/17_150.jpg","f","response","f","true"
"","","","","","html-keyboard-response","176","2.0.0","312640","pzeayncdz0u","null","<p style=""border: 5px solid green;"">Correct!</p>","null","","",""
"","","","","","html-keyboard-response","177","2.0.0","313643","pzeayncdz0u","null","<div style=""font-size: 75px;"">+</div>","null","","",""
"","","","","","image-keyboard-response","178","2.0.0","314606","pzeayncdz0u","962","stimuli/3_100.jpg","f","response","f","true"
"","","","","","html-keyboard-response","179","2.0.0","315108","pzeayncdz0u","null","<p style=""border: 5px solid green;"">Correct!</p>","null","","",""
"","","","","","html-keyboard-response","180","2.0.0","316109","pzeayncdz0u","null","<div style=""font-size: 75px;"">+</div>","null","","",""
"","","","","","image-keyboard-response","181","2.0.0","318201","pzeayncdz0u","2087","stimuli/24_100.jpg","f","response","f","true"
"","","","","","html-keyboard-response","182","2.0.0","318704","pzeayncdz0u","null","<p style=""border: 5px solid green;"">Correct!</p>","null","","",""
"","","","","","html-keyboard-response","183","2.0.0","319706","pzeayncdz0u","null","<div style=""font-size: 75px;"">+</div>","null","","",""
"","","","","","image-keyboard-response","184","2.0.0","320729","pzeayncdz0u","1021","stimuli/36_50.jpg","f","response","f","true"
"","","","","","html-keyboard-response","185","2.0.0","321230","pzeayncdz0u","null","<p style=""border: 5px solid green;"">Correct!</p>","null","","",""
"","","","","","html-keyboard-response","186","2.0.0","322233","pzeayncdz0u","null","<div style=""font-size: 75px;"">+</div>","null","","",""
"","","","","","image-keyboard-response","187","2.0.0","323432","pzeayncdz0u","1198","stimuli/11_100.jpg","f","response","f","true"
"","","","","","html-keyboard-response","188","2.0.0","323934","pzeayncdz0u","null","<p style=""border: 5px solid green;"">Correct!</p>","null","","",""
"","","","","","html-keyboard-response","189","2.0.0","324937","pzeayncdz0u","null","<div style=""font-size: 75px;"">+</div>","null","","",""
"","","","","","image-keyboard-response","190","2.0.0","325907","pzeayncdz0u","970","stimuli/47_50_R.jpg","f","response","j","false"
"","","","","","html-keyboard-response","191","2.0.0","326409","pzeayncdz0u","null","<p style=""border: 5px solid red;"">Incorrect.</p>","null","","",""
"","","","","","html-keyboard-response","192","2.0.0","327411","pzeayncdz0u","null","<div style=""font-size: 75px;"">+</div>","null","","",""
"","","","","","image-keyboard-response","193","2.0.0","328650","pzeayncdz0u","1238","stimuli/34_100.jpg","f","response","f","true"
"","","","","","html-keyboard-response","194","2.0.0","329151","pzeayncdz0u","null","<p style=""border: 5px solid green;"">Correct!</p>","null","","",""
"","","","","","html-keyboard-response","195","2.0.0","330154","pzeayncdz0u","null","<div style=""font-size: 75px;"">+</div>","null","","",""
"","","","","","image-keyboard-response","196","2.0.0","330889","pzeayncdz0u","734","stimuli/37_0_R.jpg","f","response","j","false"
"","","","","","html-keyboard-response","197","2.0.0","331390","pzeayncdz0u","null","<p style=""border: 5px solid red;"">Incorrect.</p>","null","","",""
"","","","","","html-keyboard-response","198","2.0.0","332392","pzeayncdz0u","null","<div style=""font-size: 75px;"">+</div>","null","","",""
"","","","","","image-keyboard-response","199","2.0.0","333002","pzeayncdz0u","608","stimuli/18_50.jpg","f","response","f","true"
"","","","","","html-keyboard-response","200","2.0.0","333503","pzeayncdz0u","null","<p style=""border: 5px solid green;"">Correct!</p>","null","","",""
"","","","","","html-keyboard-response","201","2.0.0","334506","pzeayncdz0u","null","<div style=""font-size: 75px;"">+</div>","null","","",""
"","","","","","image-keyboard-response","202","2.0.0","335338","pzeayncdz0u","831","stimuli/9_0.jpg","f","response","f","true"
"","","","","","html-keyboard-response","203","2.0.0","335839","pzeayncdz0u","null","<p style=""border: 5px solid green;"">Correct!</p>","null","","",""
"","","","","","html-keyboard-response","204","2.0.0","336841","pzeayncdz0u","null","<div style=""font-size: 75px;"">+</div>","null","","",""
"","","","","","image-keyboard-response","205","2.0.0","337729","pzeayncdz0u","887","stimuli/25_50_R.jpg","f","response","j","false"
"","","","","","html-keyboard-response","206","2.0.0","338231","pzeayncdz0u","null","<p style=""border: 5px solid red;"">Incorrect.</p>","null","","",""
"","","","","","html-keyboard-response","207","2.0.0","339233","pzeayncdz0u","null","<div style=""font-size: 75px;"">+</div>","null","","",""
"","","","","","image-keyboard-response","208","2.0.0","339905","pzeayncdz0u","670","stimuli/31_100_R.jpg","j","response","j","true"
"","","","","","html-keyboard-response","209","2.0.0","340407","pzeayncdz0u","null","<p style=""border: 5px solid green;"">Correct!</p>","null","","",""
"","","","","","html-keyboard-response","210","2.0.0","341410","pzeayncdz0u","null","<div style=""font-size: 75px;"">+</div>","null","","",""
"","","","","","image-keyboard-response","211","2.0.0","342431","pzeayncdz0u","1021","stimuli/47_100_R.jpg","j","response","j","true"
"","","","","","html-keyboard-response","212","2.0.0","342933","pzeayncdz0u","null","<p style=""border: 5px solid green;"">Correct!</p>","null","","",""
"","","","","","html-keyboard-response","213","2.0.0","343936","pzeayncdz0u","null","<div style=""font-size: 75px;"">+</div>","null","","",""
"","","","","","image-keyboard-response","214","2.0.0","345341","pzeayncdz0u","1404","stimuli/12_150_R.jpg","j","response","j","true"
"","","","","","html-keyboard-response","215","2.0.0","345842","pzeayncdz0u","null","<p style=""border: 5px solid green;"">Correct!</p>","null","","",""
"","","","","","html-keyboard-response","216","2.0.0","346844","pzeayncdz0u","null","<div style=""font-size: 75px;"">+</div>","null","","",""
"","","","","","image-keyboard-response","217","2.0.0","349796","pzeayncdz0u","2951","stimuli/19_0_R.jpg","f","response","j","false"
"","","","","","html-keyboard-response","218","2.0.0","350299","pzeayncdz0u","null","<p style=""border: 5px solid red;"">Incorrect.</p>","null","","",""
"","","","","","html-keyboard-response","219","2.0.0","351301","pzeayncdz0u","null","<div style=""font-size: 75px;"">+</div>","null","","",""
"","","","","","image-keyboard-response","220","2.0.0","352390","pzeayncdz0u","1088","stimuli/10_150_R.jpg","j","response","j","true"
"","","","","","html-keyboard-response","221","2.0.0","352891","pzeayncdz0u","null","<p style=""border: 5px solid green;"">Correct!</p>","null","","",""
"","","","","","html-keyboard-response","222","2.0.0","353894","pzeayncdz0u","null","<div style=""font-size: 75px;"">+</div>","null","","",""
"","","","","","image-keyboard-response","223","2.0.0","354853","pzeayncdz0u","957","stimuli/24_150.jpg","f","response","f","true"
"","","","","","html-keyboard-response","224","2.0.0","355354","pzeayncdz0u","null","<p style=""border: 5px solid green;"">Correct!</p>","null","","",""
"","","","","","html-keyboard-response","225","2.0.0","356356","pzeayncdz0u","null","<div style=""font-size: 75px;"">+</div>","null","","",""
"","","","","","image-keyboard-response","226","2.0.0","357464","pzeayncdz0u","1105","stimuli/32_100_R.jpg","f","response","j","false"
"","","","","","html-keyboard-response","227","2.0.0","357965","pzeayncdz0u","null","<p style=""border: 5px solid red;"">Incorrect.</p>","null","","",""
"","","","","","html-keyboard-response","228","2.0.0","358967","pzeayncdz0u","null","<div style=""font-size: 75px;"">+</div>","null","","",""
"","","","","","image-keyboard-response","229","2.0.0","359433","pzeayncdz0u","464","stimuli/23_150.jpg","j","response","f","false"
"","","","","","html-keyboard-response","230","2.0.0","359934","pzeayncdz0u","null","<p style=""border: 5px solid red;"">Incorrect.</p>","null","","",""
"","","","","","html-keyboard-response","231","2.0.0","360937","pzeayncdz0u","null","<div style=""font-size: 75px;"">+</div>","null","","",""
"","","","","","image-keyboard-response","232","2.0.0","361224","pzeayncdz0u","285","stimuli/16_50.jpg","f","response","f","true"
"","","","","","html-keyboard-response","233","2.0.0","361726","pzeayncdz0u","null","<p style=""border: 5px solid green;"">Correct!</p>","null","","",""
"","","","","","html-keyboard-response","234","2.0.0","362728","pzeayncdz0u","null","<div style=""font-size: 75px;"">+</div>","null","","",""
"","","","","","image-keyboard-response","235","2.0.0","363721","pzeayncdz0u","992","stimuli/38_50_R.jpg","f","response","j","false"
"","","","","","html-keyboard-response","236","2.0.0","364223","pzeayncdz0u","null","<p style=""border: 5px solid red;"">Incorrect.</p>","null","","",""
"","","","","","html-keyboard-response","237","2.0.0","365226","pzeayncdz0u","null","<div style=""font-size: 75px;"">+</div>","null","","",""
"","","","","","image-keyboard-response","238","2.0.0","365408","pzeayncdz0u","181","stimuli/6_0_R.jpg","j","response","j","true"
"","","","","","html-keyboard-response","239","2.0.0","365910","pzeayncdz0u","null","<p style=""border: 5px solid green;"">Correct!</p>","null","","",""
"","","","","","html-keyboard-response","240","2.0.0","366913","pzeayncdz0u","null","<div style=""font-size: 75px;"">+</div>","null","","",""
"","","","","","image-keyboard-response","241","2.0.0","368023","pzeayncdz0u","1109","stimuli/16_150.jpg","f","response","f","true"
"","","","","","html-keyboard-response","242","2.0.0","368524","pzeayncdz0u","null","<p style=""border: 5px solid green;"">Correct!</p>","null","","",""
"","","","","","html-keyboard-response","243","2.0.0","369527","pzeayncdz0u","null","<div style=""font-size: 75px;"">+</div>","null","","",""
"","","","","","image-keyboard-response","244","2.0.0","371068","pzeayncdz0u","1540","stimuli/25_0.jpg","f","response","f","true"
"","","","","","html-keyboard-response","245","2.0.0","371569","pzeayncdz0u","null","<p style=""border: 5px solid green;"">Correct!</p>","null","","",""
"","","","","","html-keyboard-response","246","2.0.0","372572","pzeayncdz0u","null","<div style=""font-size: 75px;"">+</div>","null","","",""
"","","","","","image-keyboard-response","247","2.0.0","373609","pzeayncdz0u","1036","stimuli/21_150.jpg","f","response","f","true"
"","","","","","html-keyboard-response","248","2.0.0","374110","pzeayncdz0u","null","<p style=""border: 5px solid green;"">Correct!</p>","null","","",""
"","","","","","html-keyboard-response","249","2.0.0","375113","pzeayncdz0u","null","<div style=""font-size: 75px;"">+</div>","null","","",""
"","","","","","image-keyboard-response","250","2.0.0","376234","pzeayncdz0u","1120","stimuli/13_150.jpg","f","response","f","true"
"","","","","","html-keyboard-response","251","2.0.0","376736","pzeayncdz0u","null","<p style=""border: 5px solid green;"">Correct!</p>","null","","",""
"","","","","","html-keyboard-response","252","2.0.0","377738","pzeayncdz0u","null","<div style=""font-size: 75px;"">+</div>","null","","",""
"","","","","","image-keyboard-response","253","2.0.0","378533","pzeayncdz0u","794","stimuli/45_0.jpg","f","response","f","true"
"","","","","","html-keyboard-response","254","2.0.0","379035","pzeayncdz0u","null","<p style=""border: 5px solid green;"">Correct!</p>","null","","",""
"","","","","","html-keyboard-response","255","2.0.0","380037","pzeayncdz0u","null","<div style=""font-size: 75px;"">+</div>","null","","",""
"","","","","","image-keyboard-response","256","2.0.0","380763","pzeayncdz0u","725","stimuli/48_100_R.jpg","f","response","j","false"
"","","","","","html-keyboard-response","257","2.0.0","381265","pzeayncdz0u","null","<p style=""border: 5px solid red;"">Incorrect.</p>","null","","",""
"","","","","","html-keyboard-response","258","2.0.0","382267","pzeayncdz0u","null","<div style=""font-size: 75px;"">+</div>","null","","",""
"","","","","","image-keyboard-response","259","2.0.0","382987","pzeayncdz0u","719","stimuli/24_50.jpg","f","response","f","true"
"","","","","","html-keyboard-response","260","2.0.0","383488","pzeayncdz0u","null","<p style=""border: 5px solid green;"">Correct!</p>","null","","",""
"","","","","","html-keyboard-response","261","2.0.0","384490","pzeayncdz0u","null","<div style=""font-size: 75px;"">+</div>","null","","",""
"","","","","","image-keyboard-response","262","2.0.0","385067","pzeayncdz0u","575","stimuli/46_0_R.jpg","f","response","j","false"
"","","","","","html-keyboard-response","263","2.0.0","385568","pzeayncdz0u","null","<p style=""border: 5px solid red;"">Incorrect.</p>","null","","",""
"","","","","","html-keyboard-response","264","2.0.0","386569","pzeayncdz0u","null","<div style=""font-size: 75px;"">+</div>","null","","",""
"","","","","","image-keyboard-response","265","2.0.0","387406","pzeayncdz0u","835","stimuli/26_100.jpg","f","response","f","true"
"","","","","","html-keyboard-response","266","2.0.0","387907","pzeayncdz0u","null","<p style=""border: 5px solid green;"">Correct!</p>","null","","",""
"","","","","","html-keyboard-response","267","2.0.0","388910","pzeayncdz0u","null","<div style=""font-size: 75px;"">+</div>","null","","",""
"","","","","","image-keyboard-response","268","2.0.0","389590","pzeayncdz0u","680","stimuli/38_100.jpg","f","response","f","true"
"","","","","","html-keyboard-response","269","2.0.0","390091","pzeayncdz0u","null","<p style=""border: 5px solid green;"">Correct!</p>","null","","",""
"","","","","","html-keyboard-response","270","2.0.0","391094","pzeayncdz0u","null","<div style=""font-size: 75px;"">+</div>","null","","",""
"","","","","","image-keyboard-response","271","2.0.0","392861","pzeayncdz0u","1766","stimuli/42_100.jpg","j","response","f","false"
"","","","","","html-keyboard-response","272","2.0.0","393362","pzeayncdz0u","null","<p style=""border: 5px solid red;"">Incorrect.</p>","null","","",""
"","","","","","html-keyboard-response","273","2.0.0","394365","pzeayncdz0u","null","<div style=""font-size: 75px;"">+</div>","null","","",""
"","","","","","image-keyboard-response","274","2.0.0","396609","pzeayncdz0u","2243","stimuli/43_0_R.jpg","f","response","j","false"
"","","","","","html-keyboard-response","275","2.0.0","397110","pzeayncdz0u","null","<p style=""border: 5px solid red;"">Incorrect.</p>","null","","",""
"","","","","","html-keyboard-response","276","2.0.0","398113","pzeayncdz0u","null","<div style=""font-size: 75px;"">+</div>","null","","",""
"","","","","","image-keyboard-response","277","2.0.0","398679","pzeayncdz0u","565","stimuli/35_150.jpg","j","response","f","false"
"","","","","","html-keyboard-response","278","2.0.0","399180","pzeayncdz0u","null","<p style=""border: 5px solid red;"">Incorrect.</p>","null","","",""
"","","","","","html-keyboard-response","279","2.0.0","400183","pzeayncdz0u","null","<div style=""font-size: 75px;"">+</div>","null","","",""
"","","","","","image-keyboard-response","280","2.0.0","401111","pzeayncdz0u","927","stimuli/42_50.jpg","f","response","f","true"
"","","","","","html-keyboard-response","281","2.0.0","401612","pzeayncdz0u","null","<p style=""border: 5px solid green;"">Correct!</p>","null","","",""
"","","","","","html-keyboard-response","282","2.0.0","402615","pzeayncdz0u","null","<div style=""font-size: 75px;"">+</div>","null","","",""
"","","","","","image-keyboard-response","283","2.0.0","403533","pzeayncdz0u","912","stimuli/24_50_R.jpg","f","response","j","false"
"","","","","","html-keyboard-response","284","2.0.0","404035","pzeayncdz0u","null","<p style=""border: 5px solid red;"">Incorrect.</p>","null","","",""
"","","","","","html-keyboard-response","285","2.0.0","405038","pzeayncdz0u","null","<div style=""font-size: 75px;"">+</div>","null","","",""
"","","","","","image-keyboard-response","286","2.0.0","405896","pzeayncdz0u","857","stimuli/35_0.jpg","f","response","f","true"
"","","","","","html-keyboard-response","287","2.0.0","406398","pzeayncdz0u","null","<p style=""border: 5px solid green;"">Correct!</p>","null","","",""
"","","","","","html-keyboard-response","288","2.0.0","407401","pzeayncdz0u","null","<div style=""font-size: 75px;"">+</div>","null","","",""
"","","","","","image-keyboard-response","289","2.0.0","408270","pzeayncdz0u","868","stimuli/22_150_R.jpg","f","response","j","false"
"","","","","","html-keyboard-response","290","2.0.0","408771","pzeayncdz0u","null","<p style=""border: 5px solid red;"">Incorrect.</p>","null","","",""
"","","","","","html-keyboard-response","291","2.0.0","409774","pzeayncdz0u","null","<div style=""font-size: 75px;"">+</div>","null","","",""
"","","","","","image-keyboard-response","292","2.0.0","410421","pzeayncdz0u","647","stimuli/37_50_R.jpg","f","response","j","false"
"","","","","","html-keyboard-response","293","2.0.0","410923","pzeayncdz0u","null","<p style=""border: 5px solid red;"">Incorrect.</p>","null","","",""
"","","","","","html-keyboard-response","294","2.0.0","412067","pzeayncdz0u","1143","<p>Thank you for participating!</p><p>Please press space to answer our survey.</p>"," ","","",""
"","","","","","survey-html-form","295","null","534107","pzeayncdz0u","122040","","{""response_1"":""Clear and lively"",""response_2"":""Moderately clear and lively"",""response_3"":""Moderately clear and lively"",""response_4"":""Moderately clear and lively"",""response_5"":""Perfectly clear and lively as real seeing"",""response_6"":""Clear and lively"",""response_7"":""No image at all, you only “know” that you are thinking of the object"",""response_8"":""No image at all, you only “know” that you are thinking of the object"",""response_9"":""Clear and lively"",""response_10"":""Moderately clear and lively"",""response_11"":""Moderately clear and lively"",""response_12"":""Clear and lively"",""response_13"":""Clear and lively"",""response_14"":""Clear and lively"",""response_15"":""Clear and lively"",""response_16"":""Clear and lively""}","","",""
"","","","","","survey-html-form","296","null","596240","pzeayncdz0u","62134","","{""age"":""22"",""gender"":""male"",""education"":""some-college"",""handedness"":""right"",""vision"":""normal"",""technical_difficulties"":""no"",""knowledge_check"":""visual image created in the mind""}","","",""
