"success","timeout","failed_images","failed_audio","failed_video","trial_type","trial_index","plugin_version","time_elapsed","random_id","rt","stimulus","response","task","correct_response","correct"
"true","false","[]","[]","[]","preload","0","2.0.0","5281","pzxd42gxq7x","","","","","",""
"true","","","","","fullscreen","1","2.0.0","9739","pzxd42gxq7x","3454","","","","",""
"","","","","","html-keyboard-response","2","2.0.0","11639","pzxd42gxq7x","1899","Welcome to the experiment. Press any key to begin."," ","","",""
"","","","","","survey-text","3","2.0.0","14591","pzxd42gxq7x","2950","","{""participant_id"":""seal""}","","",""
"","","","","","html-keyboard-response","4","2.0.0","21415","pzxd42gxq7x","6824","
        <p>Welcome to the experiment.</p>
        <p>In this task, you will see pairs of images.</p>
        <p>Your job is to determine whether the image on the right is a rotated version of the image on the left.</p>
        <p>Press the <strong>F</strong> key if the images are the same.</p>
        <p>Press the <strong>J</strong> key if the images are different.</p>
        <p>Press any key to begin.</p>
    "," ","","",""
"","","","","","html-keyboard-response","5","2.0.0","22418","pzxd42gxq7x","null","<div style=""font-size: 75px;"">+</div>","null","","",""
"","","","","","image-keyboard-response","6","2.0.0","26255","pzxd42gxq7x","3834","stimuli/5_100_R.jpg","f","response","j","false"
"","","","","","html-keyboard-response","7","2.0.0","26756","pzxd42gxq7x","null","<p style=""border: 5px solid red;"">Incorrect.</p>","null","","",""
"","","","","","html-keyboard-response","8","2.0.0","27759","pzxd42gxq7x","null","<div style=""font-size: 75px;"">+</div>","null","","",""
"","","","","","image-keyboard-response","9","2.0.0","30122","pzxd42gxq7x","2362","stimuli/28_100.jpg","f","response","f","true"
"","","","","","html-keyboard-response","10","2.0.0","30624","pzxd42gxq7x","null","<p style=""border: 5px solid green;"">Correct!</p>","null","","",""
"","","","","","html-keyboard-response","11","2.0.0","31627","pzxd42gxq7x","null","<div style=""font-size: 75px;"">+</div>","null","","",""
"","","","","","image-keyboard-response","12","2.0.0","33492","pzxd42gxq7x","1864","stimuli/47_50.jpg","f","response","f","true"
"","","","","","html-keyboard-response","13","2.0.0","33994","pzxd42gxq7x","null","<p style=""border: 5px solid green;"">Correct!</p>","null","","",""
"","","","","","html-keyboard-response","14","2.0.0","34996","pzxd42gxq7x","null","<div style=""font-size: 75px;"">+</div>","null","","",""
"","","","","","image-keyboard-response","15","2.0.0","37340","pzxd42gxq7x","2343","stimuli/19_150.jpg","f","response","f","true"
"","","","","","html-keyboard-response","16","2.0.0","37842","pzxd42gxq7x","null","<p style=""border: 5px solid green;"">Correct!</p>","null","","",""
"","","","","","html-keyboard-response","17","2.0.0","38844","pzxd42gxq7x","null","<div style=""font-size: 75px;"">+</div>","null","","",""
"","","","","","image-keyboard-response","18","2.0.0","41203","pzxd42gxq7x","2357","stimuli/15_50.jpg","f","response","f","true"
"","","","","","html-keyboard-response","19","2.0.0","41704","pzxd42gxq7x","null","<p style=""border: 5px solid green;"">Correct!</p>","null","","",""
"","","","","","html-keyboard-response","20","2.0.0","42707","pzxd42gxq7x","null","<div style=""font-size: 75px;"">+</div>","null","","",""
"","","","","","image-keyboard-response","21","2.0.0","45554","pzxd42gxq7x","2846","stimuli/21_0.jpg","f","response","f","true"
"","","","","","html-keyboard-response","22","2.0.0","46056","pzxd42gxq7x","null","<p style=""border: 5px solid green;"">Correct!</p>","null","","",""
"","","","","","html-keyboard-response","23","2.0.0","47058","pzxd42gxq7x","null","<div style=""font-size: 75px;"">+</div>","null","","",""
"","","","","","image-keyboard-response","24","2.0.0","48566","pzxd42gxq7x","1506","stimuli/21_50_R.jpg","j","response","j","true"
"","","","","","html-keyboard-response","25","2.0.0","49068","pzxd42gxq7x","null","<p style=""border: 5px solid green;"">Correct!</p>","null","","",""
"","","","","","html-keyboard-response","26","2.0.0","50071","pzxd42gxq7x","null","<div style=""font-size: 75px;"">+</div>","null","","",""
"","","","","","image-keyboard-response","27","2.0.0","51472","pzxd42gxq7x","1400","stimuli/41_150.jpg","f","response","f","true"
"","","","","","html-keyboard-response","28","2.0.0","51974","pzxd42gxq7x","null","<p style=""border: 5px solid green;"">Correct!</p>","null","","",""
"","","","","","html-keyboard-response","29","2.0.0","52977","pzxd42gxq7x","null","<div style=""font-size: 75px;"">+</div>","null","","",""
"","","","","","image-keyboard-response","30","2.0.0","54970","pzxd42gxq7x","1992","stimuli/9_50_R.jpg","j","response","j","true"
"","","","","","html-keyboard-response","31","2.0.0","55472","pzxd42gxq7x","null","<p style=""border: 5px solid green;"">Correct!</p>","null","","",""
"","","","","","html-keyboard-response","32","2.0.0","56474","pzxd42gxq7x","null","<div style=""font-size: 75px;"">+</div>","null","","",""
"","","","","","image-keyboard-response","33","2.0.0","58489","pzxd42gxq7x","2014","stimuli/9_100.jpg","f","response","f","true"
"","","","","","html-keyboard-response","34","2.0.0","58990","pzxd42gxq7x","null","<p style=""border: 5px solid green;"">Correct!</p>","null","","",""
"","","","","","html-keyboard-response","35","2.0.0","59993","pzxd42gxq7x","null","<div style=""font-size: 75px;"">+</div>","null","","",""
"","","","","","image-keyboard-response","36","2.0.0","62419","pzxd42gxq7x","2425","stimuli/36_100.jpg","f","response","f","true"
"","","","","","html-keyboard-response","37","2.0.0","62921","pzxd42gxq7x","null","<p style=""border: 5px solid green;"">Correct!</p>","null","","",""
"","","","","","html-keyboard-response","38","2.0.0","63923","pzxd42gxq7x","null","<div style=""font-size: 75px;"">+</div>","null","","",""
"","","","","","image-keyboard-response","39","2.0.0","65588","pzxd42gxq7x","1664","stimuli/5_0.jpg","f","response","f","true"
"","","","","","html-keyboard-response","40","2.0.0","66089","pzxd42gxq7x","null","<p style=""border: 5px solid green;"">Correct!</p>","null","","",""
"","","","","","html-keyboard-response","41","2.0.0","67091","pzxd42gxq7x","null","<div style=""font-size: 75px;"">+</div>","null","","",""
"","","","","","image-keyboard-response","42","2.0.0","69361","pzxd42gxq7x","2269","stimuli/10_50.jpg","f","response","f","true"
"","","","","","html-keyboard-response","43","2.0.0","69863","pzxd42gxq7x","null","<p style=""border: 5px solid green;"">Correct!</p>","null","","",""
"","","","","","html-keyboard-response","44","2.0.0","70866","pzxd42gxq7x","null","<div style=""font-size: 75px;"">+</div>","null","","",""
"","","","","","image-keyboard-response","45","2.0.0","72913","pzxd42gxq7x","2045","stimuli/40_50.jpg","f","response","f","true"
"","","","","","html-keyboard-response","46","2.0.0","73414","pzxd42gxq7x","null","<p style=""border: 5px solid green;"">Correct!</p>","null","","",""
"","","","","","html-keyboard-response","47","2.0.0","74417","pzxd42gxq7x","null","<div style=""font-size: 75px;"">+</div>","null","","",""
"","","","","","image-keyboard-response","48","2.0.0","77004","pzxd42gxq7x","2586","stimuli/26_150.jpg","f","response","f","true"
"","","","","","html-keyboard-response","49","2.0.0","77506","pzxd42gxq7x","null","<p style=""border: 5px solid green;"">Correct!</p>","null","","",""
"","","","","","html-keyboard-response","50","2.0.0","78509","pzxd42gxq7x","null","<div style=""font-size: 75px;"">+</div>","null","","",""
"","","","","","image-keyboard-response","51","2.0.0","80369","pzxd42gxq7x","1859","stimuli/17_0_R.jpg","j","response","j","true"
"","","","","","html-keyboard-response","52","2.0.0","80870","pzxd42gxq7x","null","<p style=""border: 5px solid green;"">Correct!</p>","null","","",""
"","","","","","html-keyboard-response","53","2.0.0","81872","pzxd42gxq7x","null","<div style=""font-size: 75px;"">+</div>","null","","",""
"","","","","","image-keyboard-response","54","2.0.0","83132","pzxd42gxq7x","1258","stimuli/41_0_R.jpg","j","response","j","true"
"","","","","","html-keyboard-response","55","2.0.0","83633","pzxd42gxq7x","null","<p style=""border: 5px solid green;"">Correct!</p>","null","","",""
"","","","","","html-keyboard-response","56","2.0.0","84635","pzxd42gxq7x","null","<div style=""font-size: 75px;"">+</div>","null","","",""
"","","","","","image-keyboard-response","57","2.0.0","86627","pzxd42gxq7x","1991","stimuli/15_50_R.jpg","j","response","j","true"
"","","","","","html-keyboard-response","58","2.0.0","87128","pzxd42gxq7x","null","<p style=""border: 5px solid green;"">Correct!</p>","null","","",""
"","","","","","html-keyboard-response","59","2.0.0","88131","pzxd42gxq7x","null","<div style=""font-size: 75px;"">+</div>","null","","",""
"","","","","","image-keyboard-response","60","2.0.0","91664","pzxd42gxq7x","3532","stimuli/1_150_R.jpg","j","response","j","true"
"","","","","","html-keyboard-response","61","2.0.0","92165","pzxd42gxq7x","null","<p style=""border: 5px solid green;"">Correct!</p>","null","","",""
"","","","","","html-keyboard-response","62","2.0.0","93167","pzxd42gxq7x","null","<div style=""font-size: 75px;"">+</div>","null","","",""
"","","","","","image-keyboard-response","63","2.0.0","94947","pzxd42gxq7x","1779","stimuli/22_100.jpg","f","response","f","true"
"","","","","","html-keyboard-response","64","2.0.0","95448","pzxd42gxq7x","null","<p style=""border: 5px solid green;"">Correct!</p>","null","","",""
"","","","","","html-keyboard-response","65","2.0.0","96451","pzxd42gxq7x","null","<div style=""font-size: 75px;"">+</div>","null","","",""
"","","","","","image-keyboard-response","66","2.0.0","97496","pzxd42gxq7x","1044","stimuli/47_0_R.jpg","j","response","j","true"
"","","","","","html-keyboard-response","67","2.0.0","97998","pzxd42gxq7x","null","<p style=""border: 5px solid green;"">Correct!</p>","null","","",""
"","","","","","html-keyboard-response","68","2.0.0","99000","pzxd42gxq7x","null","<div style=""font-size: 75px;"">+</div>","null","","",""
"","","","","","image-keyboard-response","69","2.0.0","101226","pzxd42gxq7x","2225","stimuli/7_50_R.jpg","j","response","j","true"
"","","","","","html-keyboard-response","70","2.0.0","101727","pzxd42gxq7x","null","<p style=""border: 5px solid green;"">Correct!</p>","null","","",""
"","","","","","html-keyboard-response","71","2.0.0","102729","pzxd42gxq7x","null","<div style=""font-size: 75px;"">+</div>","null","","",""
"","","","","","image-keyboard-response","72","2.0.0","106195","pzxd42gxq7x","3465","stimuli/22_150.jpg","f","response","f","true"
"","","","","","html-keyboard-response","73","2.0.0","106697","pzxd42gxq7x","null","<p style=""border: 5px solid green;"">Correct!</p>","null","","",""
"","","","","","html-keyboard-response","74","2.0.0","107700","pzxd42gxq7x","null","<div style=""font-size: 75px;"">+</div>","null","","",""
"","","","","","image-keyboard-response","75","2.0.0","109789","pzxd42gxq7x","2088","stimuli/11_100.jpg","f","response","f","true"
"","","","","","html-keyboard-response","76","2.0.0","110289","pzxd42gxq7x","null","<p style=""border: 5px solid green;"">Correct!</p>","null","","",""
"","","","","","html-keyboard-response","77","2.0.0","111292","pzxd42gxq7x","null","<div style=""font-size: 75px;"">+</div>","null","","",""
"","","","","","image-keyboard-response","78","2.0.0","112459","pzxd42gxq7x","1166","stimuli/24_0.jpg","f","response","f","true"
"","","","","","html-keyboard-response","79","2.0.0","112960","pzxd42gxq7x","null","<p style=""border: 5px solid green;"">Correct!</p>","null","","",""
"","","","","","html-keyboard-response","80","2.0.0","113963","pzxd42gxq7x","null","<div style=""font-size: 75px;"">+</div>","null","","",""
"","","","","","image-keyboard-response","81","2.0.0","115585","pzxd42gxq7x","1620","stimuli/47_150_R.jpg","j","response","j","true"
"","","","","","html-keyboard-response","82","2.0.0","116086","pzxd42gxq7x","null","<p style=""border: 5px solid green;"">Correct!</p>","null","","",""
"","","","","","html-keyboard-response","83","2.0.0","117088","pzxd42gxq7x","null","<div style=""font-size: 75px;"">+</div>","null","","",""
"","","","","","image-keyboard-response","84","2.0.0","118954","pzxd42gxq7x","1865","stimuli/1_0_R.jpg","j","response","j","true"
"","","","","","html-keyboard-response","85","2.0.0","119456","pzxd42gxq7x","null","<p style=""border: 5px solid green;"">Correct!</p>","null","","",""
"","","","","","html-keyboard-response","86","2.0.0","120458","pzxd42gxq7x","null","<div style=""font-size: 75px;"">+</div>","null","","",""
"","","","","","image-keyboard-response","87","2.0.0","122304","pzxd42gxq7x","1844","stimuli/22_0_R.jpg","f","response","j","false"
"","","","","","html-keyboard-response","88","2.0.0","122805","pzxd42gxq7x","null","<p style=""border: 5px solid red;"">Incorrect.</p>","null","","",""
"","","","","","html-keyboard-response","89","2.0.0","123808","pzxd42gxq7x","null","<div style=""font-size: 75px;"">+</div>","null","","",""
"","","","","","image-keyboard-response","90","2.0.0","125099","pzxd42gxq7x","1290","stimuli/44_0_R.jpg","j","response","j","true"
"","","","","","html-keyboard-response","91","2.0.0","125601","pzxd42gxq7x","null","<p style=""border: 5px solid green;"">Correct!</p>","null","","",""
"","","","","","html-keyboard-response","92","2.0.0","126603","pzxd42gxq7x","null","<div style=""font-size: 75px;"">+</div>","null","","",""
"","","","","","image-keyboard-response","93","2.0.0","127520","pzxd42gxq7x","916","stimuli/44_0.jpg","f","response","f","true"
"","","","","","html-keyboard-response","94","2.0.0","128022","pzxd42gxq7x","null","<p style=""border: 5px solid green;"">Correct!</p>","null","","",""
"","","","","","html-keyboard-response","95","2.0.0","129025","pzxd42gxq7x","null","<div style=""font-size: 75px;"">+</div>","null","","",""
"","","","","","image-keyboard-response","96","2.0.0","131199","pzxd42gxq7x","2173","stimuli/5_100.jpg","f","response","f","true"
"","","","","","html-keyboard-response","97","2.0.0","131701","pzxd42gxq7x","null","<p style=""border: 5px solid green;"">Correct!</p>","null","","",""
"","","","","","html-keyboard-response","98","2.0.0","132703","pzxd42gxq7x","null","<div style=""font-size: 75px;"">+</div>","null","","",""
"","","","","","image-keyboard-response","99","2.0.0","133791","pzxd42gxq7x","1087","stimuli/29_50_R.jpg","j","response","j","true"
"","","","","","html-keyboard-response","100","2.0.0","134292","pzxd42gxq7x","null","<p style=""border: 5px solid green;"">Correct!</p>","null","","",""
"","","","","","html-keyboard-response","101","2.0.0","135294","pzxd42gxq7x","null","<div style=""font-size: 75px;"">+</div>","null","","",""
"","","","","","image-keyboard-response","102","2.0.0","137784","pzxd42gxq7x","2489","stimuli/13_150_R.jpg","j","response","j","true"
"","","","","","html-keyboard-response","103","2.0.0","138287","pzxd42gxq7x","null","<p style=""border: 5px solid green;"">Correct!</p>","null","","",""
"","","","","","html-keyboard-response","104","2.0.0","139289","pzxd42gxq7x","null","<div style=""font-size: 75px;"">+</div>","null","","",""
"","","","","","image-keyboard-response","105","2.0.0","140441","pzxd42gxq7x","1151","stimuli/7_150_R.jpg","j","response","j","true"
"","","","","","html-keyboard-response","106","2.0.0","140943","pzxd42gxq7x","null","<p style=""border: 5px solid green;"">Correct!</p>","null","","",""
"","","","","","html-keyboard-response","107","2.0.0","141944","pzxd42gxq7x","null","<div style=""font-size: 75px;"">+</div>","null","","",""
"","","","","","image-keyboard-response","108","2.0.0","143154","pzxd42gxq7x","1208","stimuli/32_50.jpg","f","response","f","true"
"","","","","","html-keyboard-response","109","2.0.0","143655","pzxd42gxq7x","null","<p style=""border: 5px solid green;"">Correct!</p>","null","","",""
"","","","","","html-keyboard-response","110","2.0.0","144657","pzxd42gxq7x","null","<div style=""font-size: 75px;"">+</div>","null","","",""
"","","","","","image-keyboard-response","111","2.0.0","145562","pzxd42gxq7x","904","stimuli/33_0.jpg","f","response","f","true"
"","","","","","html-keyboard-response","112","2.0.0","146064","pzxd42gxq7x","null","<p style=""border: 5px solid green;"">Correct!</p>","null","","",""
"","","","","","html-keyboard-response","113","2.0.0","147066","pzxd42gxq7x","null","<div style=""font-size: 75px;"">+</div>","null","","",""
"","","","","","image-keyboard-response","114","2.0.0","149751","pzxd42gxq7x","2684","stimuli/16_100.jpg","f","response","f","true"
"","","","","","html-keyboard-response","115","2.0.0","150253","pzxd42gxq7x","null","<p style=""border: 5px solid green;"">Correct!</p>","null","","",""
"","","","","","html-keyboard-response","116","2.0.0","151256","pzxd42gxq7x","null","<div style=""font-size: 75px;"">+</div>","null","","",""
"","","","","","image-keyboard-response","117","2.0.0","152151","pzxd42gxq7x","894","stimuli/43_0.jpg","f","response","f","true"
"","","","","","html-keyboard-response","118","2.0.0","152653","pzxd42gxq7x","null","<p style=""border: 5px solid green;"">Correct!</p>","null","","",""
"","","","","","html-keyboard-response","119","2.0.0","153656","pzxd42gxq7x","null","<div style=""font-size: 75px;"">+</div>","null","","",""
"","","","","","image-keyboard-response","120","2.0.0","155306","pzxd42gxq7x","1649","stimuli/45_100.jpg","j","response","f","false"
"","","","","","html-keyboard-response","121","2.0.0","155808","pzxd42gxq7x","null","<p style=""border: 5px solid red;"">Incorrect.</p>","null","","",""
"","","","","","html-keyboard-response","122","2.0.0","156811","pzxd42gxq7x","null","<div style=""font-size: 75px;"">+</div>","null","","",""
"","","","","","image-keyboard-response","123","2.0.0","158253","pzxd42gxq7x","1441","stimuli/3_150.jpg","f","response","f","true"
"","","","","","html-keyboard-response","124","2.0.0","158755","pzxd42gxq7x","null","<p style=""border: 5px solid green;"">Correct!</p>","null","","",""
"","","","","","html-keyboard-response","125","2.0.0","159757","pzxd42gxq7x","null","<div style=""font-size: 75px;"">+</div>","null","","",""
"","","","","","image-keyboard-response","126","2.0.0","161232","pzxd42gxq7x","1474","stimuli/47_100_R.jpg","j","response","j","true"
"","","","","","html-keyboard-response","127","2.0.0","161733","pzxd42gxq7x","null","<p style=""border: 5px solid green;"">Correct!</p>","null","","",""
"","","","","","html-keyboard-response","128","2.0.0","162735","pzxd42gxq7x","null","<div style=""font-size: 75px;"">+</div>","null","","",""
"","","","","","image-keyboard-response","129","2.0.0","163657","pzxd42gxq7x","921","stimuli/22_0.jpg","f","response","f","true"
"","","","","","html-keyboard-response","130","2.0.0","164158","pzxd42gxq7x","null","<p style=""border: 5px solid green;"">Correct!</p>","null","","",""
"","","","","","html-keyboard-response","131","2.0.0","165160","pzxd42gxq7x","null","<div style=""font-size: 75px;"">+</div>","null","","",""
"","","","","","image-keyboard-response","132","2.0.0","166588","pzxd42gxq7x","1426","stimuli/44_100_R.jpg","j","response","j","true"
"","","","","","html-keyboard-response","133","2.0.0","167089","pzxd42gxq7x","null","<p style=""border: 5px solid green;"">Correct!</p>","null","","",""
"","","","","","html-keyboard-response","134","2.0.0","168091","pzxd42gxq7x","null","<div style=""font-size: 75px;"">+</div>","null","","",""
"","","","","","image-keyboard-response","135","2.0.0","169145","pzxd42gxq7x","1052","stimuli/46_50_R.jpg","j","response","j","true"
"","","","","","html-keyboard-response","136","2.0.0","169647","pzxd42gxq7x","null","<p style=""border: 5px solid green;"">Correct!</p>","null","","",""
"","","","","","html-keyboard-response","137","2.0.0","170650","pzxd42gxq7x","null","<div style=""font-size: 75px;"">+</div>","null","","",""
"","","","","","image-keyboard-response","138","2.0.0","172052","pzxd42gxq7x","1402","stimuli/31_150_R.jpg","f","response","j","false"
"","","","","","html-keyboard-response","139","2.0.0","172554","pzxd42gxq7x","null","<p style=""border: 5px solid red;"">Incorrect.</p>","null","","",""
"","","","","","html-keyboard-response","140","2.0.0","173556","pzxd42gxq7x","null","<div style=""font-size: 75px;"">+</div>","null","","",""
"","","","","","image-keyboard-response","141","2.0.0","174866","pzxd42gxq7x","1309","stimuli/25_50.jpg","f","response","f","true"
"","","","","","html-keyboard-response","142","2.0.0","175368","pzxd42gxq7x","null","<p style=""border: 5px solid green;"">Correct!</p>","null","","",""
"","","","","","html-keyboard-response","143","2.0.0","176370","pzxd42gxq7x","null","<div style=""font-size: 75px;"">+</div>","null","","",""
"","","","","","image-keyboard-response","144","2.0.0","178622","pzxd42gxq7x","2251","stimuli/43_150_R.jpg","j","response","j","true"
"","","","","","html-keyboard-response","145","2.0.0","179124","pzxd42gxq7x","null","<p style=""border: 5px solid green;"">Correct!</p>","null","","",""
"","","","","","html-keyboard-response","146","2.0.0","180125","pzxd42gxq7x","null","<div style=""font-size: 75px;"">+</div>","null","","",""
"","","","","","image-keyboard-response","147","2.0.0","180986","pzxd42gxq7x","860","stimuli/30_0.jpg","f","response","f","true"
"","","","","","html-keyboard-response","148","2.0.0","181488","pzxd42gxq7x","null","<p style=""border: 5px solid green;"">Correct!</p>","null","","",""
"","","","","","html-keyboard-response","149","2.0.0","211490","pzxd42gxq7x","null","<p> Take a break! Experiment continues in 30 seconds . </p>","null","","",""
"","","","","","html-keyboard-response","150","2.0.0","212493","pzxd42gxq7x","null","<div style=""font-size: 75px;"">+</div>","null","","",""
"","","","","","image-keyboard-response","151","2.0.0","215257","pzxd42gxq7x","2763","stimuli/33_150.jpg","j","response","f","false"
"","","","","","html-keyboard-response","152","2.0.0","215758","pzxd42gxq7x","null","<p style=""border: 5px solid red;"">Incorrect.</p>","null","","",""
"","","","","","html-keyboard-response","153","2.0.0","216760","pzxd42gxq7x","null","<div style=""font-size: 75px;"">+</div>","null","","",""
"","","","","","image-keyboard-response","154","2.0.0","218377","pzxd42gxq7x","1616","stimuli/40_150.jpg","j","response","f","false"
"","","","","","html-keyboard-response","155","2.0.0","218878","pzxd42gxq7x","null","<p style=""border: 5px solid red;"">Incorrect.</p>","null","","",""
"","","","","","html-keyboard-response","156","2.0.0","219880","pzxd42gxq7x","null","<div style=""font-size: 75px;"">+</div>","null","","",""
"","","","","","image-keyboard-response","157","2.0.0","220801","pzxd42gxq7x","920","stimuli/33_100_R.jpg","f","response","j","false"
"","","","","","html-keyboard-response","158","2.0.0","221303","pzxd42gxq7x","null","<p style=""border: 5px solid red;"">Incorrect.</p>","null","","",""
"","","","","","html-keyboard-response","159","2.0.0","222305","pzxd42gxq7x","null","<div style=""font-size: 75px;"">+</div>","null","","",""
"","","","","","image-keyboard-response","160","2.0.0","224629","pzxd42gxq7x","2322","stimuli/7_100_R.jpg","j","response","j","true"
"","","","","","html-keyboard-response","161","2.0.0","225131","pzxd42gxq7x","null","<p style=""border: 5px solid green;"">Correct!</p>","null","","",""
"","","","","","html-keyboard-response","162","2.0.0","226133","pzxd42gxq7x","null","<div style=""font-size: 75px;"">+</div>","null","","",""
"","","","","","image-keyboard-response","163","2.0.0","228839","pzxd42gxq7x","2705","stimuli/16_100_R.jpg","j","response","j","true"
"","","","","","html-keyboard-response","164","2.0.0","229341","pzxd42gxq7x","null","<p style=""border: 5px solid green;"">Correct!</p>","null","","",""
"","","","","","html-keyboard-response","165","2.0.0","230343","pzxd42gxq7x","null","<div style=""font-size: 75px;"">+</div>","null","","",""
"","","","","","image-keyboard-response","166","2.0.0","232018","pzxd42gxq7x","1674","stimuli/3_50.jpg","f","response","f","true"
"","","","","","html-keyboard-response","167","2.0.0","232520","pzxd42gxq7x","null","<p style=""border: 5px solid green;"">Correct!</p>","null","","",""
"","","","","","html-keyboard-response","168","2.0.0","233522","pzxd42gxq7x","null","<div style=""font-size: 75px;"">+</div>","null","","",""
"","","","","","image-keyboard-response","169","2.0.0","234623","pzxd42gxq7x","1100","stimuli/39_150_R.jpg","j","response","j","true"
"","","","","","html-keyboard-response","170","2.0.0","235125","pzxd42gxq7x","null","<p style=""border: 5px solid green;"">Correct!</p>","null","","",""
"","","","","","html-keyboard-response","171","2.0.0","236127","pzxd42gxq7x","null","<div style=""font-size: 75px;"">+</div>","null","","",""
"","","","","","image-keyboard-response","172","2.0.0","238416","pzxd42gxq7x","2287","stimuli/12_150.jpg","f","response","f","true"
"","","","","","html-keyboard-response","173","2.0.0","238916","pzxd42gxq7x","null","<p style=""border: 5px solid green;"">Correct!</p>","null","","",""
"","","","","","html-keyboard-response","174","2.0.0","239919","pzxd42gxq7x","null","<div style=""font-size: 75px;"">+</div>","null","","",""
"","","","","","image-keyboard-response","175","2.0.0","241140","pzxd42gxq7x","1219","stimuli/36_150.jpg","j","response","f","false"
"","","","","","html-keyboard-response","176","2.0.0","241641","pzxd42gxq7x","null","<p style=""border: 5px solid red;"">Incorrect.</p>","null","","",""
"","","","","","html-keyboard-response","177","2.0.0","242643","pzxd42gxq7x","null","<div style=""font-size: 75px;"">+</div>","null","","",""
"","","","","","image-keyboard-response","178","2.0.0","243960","pzxd42gxq7x","1315","stimuli/37_0_R.jpg","f","response","j","false"
"","","","","","html-keyboard-response","179","2.0.0","244461","pzxd42gxq7x","null","<p style=""border: 5px solid red;"">Incorrect.</p>","null","","",""
"","","","","","html-keyboard-response","180","2.0.0","245464","pzxd42gxq7x","null","<div style=""font-size: 75px;"">+</div>","null","","",""
"","","","","","image-keyboard-response","181","2.0.0","246806","pzxd42gxq7x","1341","stimuli/45_150_R.jpg","j","response","j","true"
"","","","","","html-keyboard-response","182","2.0.0","247308","pzxd42gxq7x","null","<p style=""border: 5px solid green;"">Correct!</p>","null","","",""
"","","","","","html-keyboard-response","183","2.0.0","248310","pzxd42gxq7x","null","<div style=""font-size: 75px;"">+</div>","null","","",""
"","","","","","image-keyboard-response","184","2.0.0","249273","pzxd42gxq7x","962","stimuli/43_0_R.jpg","j","response","j","true"
"","","","","","html-keyboard-response","185","2.0.0","249774","pzxd42gxq7x","null","<p style=""border: 5px solid green;"">Correct!</p>","null","","",""
"","","","","","html-keyboard-response","186","2.0.0","250776","pzxd42gxq7x","null","<div style=""font-size: 75px;"">+</div>","null","","",""
"","","","","","image-keyboard-response","187","2.0.0","252545","pzxd42gxq7x","1768","stimuli/18_150_R.jpg","j","response","j","true"
"","","","","","html-keyboard-response","188","2.0.0","253047","pzxd42gxq7x","null","<p style=""border: 5px solid green;"">Correct!</p>","null","","",""
"","","","","","html-keyboard-response","189","2.0.0","254049","pzxd42gxq7x","null","<div style=""font-size: 75px;"">+</div>","null","","",""
"","","","","","image-keyboard-response","190","2.0.0","255899","pzxd42gxq7x","1848","stimuli/27_150.jpg","f","response","f","true"
"","","","","","html-keyboard-response","191","2.0.0","256401","pzxd42gxq7x","null","<p style=""border: 5px solid green;"">Correct!</p>","null","","",""
"","","","","","html-keyboard-response","192","2.0.0","257403","pzxd42gxq7x","null","<div style=""font-size: 75px;"">+</div>","null","","",""
"","","","","","image-keyboard-response","193","2.0.0","258590","pzxd42gxq7x","1186","stimuli/12_50.jpg","f","response","f","true"
"","","","","","html-keyboard-response","194","2.0.0","259091","pzxd42gxq7x","null","<p style=""border: 5px solid green;"">Correct!</p>","null","","",""
"","","","","","html-keyboard-response","195","2.0.0","260094","pzxd42gxq7x","null","<div style=""font-size: 75px;"">+</div>","null","","",""
"","","","","","image-keyboard-response","196","2.0.0","261252","pzxd42gxq7x","1157","stimuli/40_0_R.jpg","j","response","j","true"
"","","","","","html-keyboard-response","197","2.0.0","261754","pzxd42gxq7x","null","<p style=""border: 5px solid green;"">Correct!</p>","null","","",""
"","","","","","html-keyboard-response","198","2.0.0","262756","pzxd42gxq7x","null","<div style=""font-size: 75px;"">+</div>","null","","",""
"","","","","","image-keyboard-response","199","2.0.0","265149","pzxd42gxq7x","2392","stimuli/3_100_R.jpg","j","response","j","true"
"","","","","","html-keyboard-response","200","2.0.0","265650","pzxd42gxq7x","null","<p style=""border: 5px solid green;"">Correct!</p>","null","","",""
"","","","","","html-keyboard-response","201","2.0.0","266652","pzxd42gxq7x","null","<div style=""font-size: 75px;"">+</div>","null","","",""
"","","","","","image-keyboard-response","202","2.0.0","269792","pzxd42gxq7x","3138","stimuli/5_50_R.jpg","j","response","j","true"
"","","","","","html-keyboard-response","203","2.0.0","270293","pzxd42gxq7x","null","<p style=""border: 5px solid green;"">Correct!</p>","null","","",""
"","","","","","html-keyboard-response","204","2.0.0","271296","pzxd42gxq7x","null","<div style=""font-size: 75px;"">+</div>","null","","",""
"","","","","","image-keyboard-response","205","2.0.0","272858","pzxd42gxq7x","1561","stimuli/46_100.jpg","f","response","f","true"
"","","","","","html-keyboard-response","206","2.0.0","273359","pzxd42gxq7x","null","<p style=""border: 5px solid green;"">Correct!</p>","null","","",""
"","","","","","html-keyboard-response","207","2.0.0","274361","pzxd42gxq7x","null","<div style=""font-size: 75px;"">+</div>","null","","",""
"","","","","","image-keyboard-response","208","2.0.0","275251","pzxd42gxq7x","889","stimuli/23_0.jpg","f","response","f","true"
"","","","","","html-keyboard-response","209","2.0.0","275753","pzxd42gxq7x","null","<p style=""border: 5px solid green;"">Correct!</p>","null","","",""
"","","","","","html-keyboard-response","210","2.0.0","276755","pzxd42gxq7x","null","<div style=""font-size: 75px;"">+</div>","null","","",""
"","","","","","image-keyboard-response","211","2.0.0","277624","pzxd42gxq7x","868","stimuli/24_50_R.jpg","j","response","j","true"
"","","","","","html-keyboard-response","212","2.0.0","278126","pzxd42gxq7x","null","<p style=""border: 5px solid green;"">Correct!</p>","null","","",""
"","","","","","html-keyboard-response","213","2.0.0","279129","pzxd42gxq7x","null","<div style=""font-size: 75px;"">+</div>","null","","",""
"","","","","","image-keyboard-response","214","2.0.0","281754","pzxd42gxq7x","2624","stimuli/43_50.jpg","f","response","f","true"
"","","","","","html-keyboard-response","215","2.0.0","282255","pzxd42gxq7x","null","<p style=""border: 5px solid green;"">Correct!</p>","null","","",""
"","","","","","html-keyboard-response","216","2.0.0","283257","pzxd42gxq7x","null","<div style=""font-size: 75px;"">+</div>","null","","",""
"","","","","","image-keyboard-response","217","2.0.0","284013","pzxd42gxq7x","756","stimuli/47_0.jpg","f","response","f","true"
"","","","","","html-keyboard-response","218","2.0.0","284515","pzxd42gxq7x","null","<p style=""border: 5px solid green;"">Correct!</p>","null","","",""
"","","","","","html-keyboard-response","219","2.0.0","285517","pzxd42gxq7x","null","<div style=""font-size: 75px;"">+</div>","null","","",""
"","","","","","image-keyboard-response","220","2.0.0","286459","pzxd42gxq7x","940","stimuli/39_100_R.jpg","j","response","j","true"
"","","","","","html-keyboard-response","221","2.0.0","286960","pzxd42gxq7x","null","<p style=""border: 5px solid green;"">Correct!</p>","null","","",""
"","","","","","html-keyboard-response","222","2.0.0","287963","pzxd42gxq7x","null","<div style=""font-size: 75px;"">+</div>","null","","",""
"","","","","","image-keyboard-response","223","2.0.0","290355","pzxd42gxq7x","2391","stimuli/38_150_R.jpg","j","response","j","true"
"","","","","","html-keyboard-response","224","2.0.0","290857","pzxd42gxq7x","null","<p style=""border: 5px solid green;"">Correct!</p>","null","","",""
"","","","","","html-keyboard-response","225","2.0.0","291860","pzxd42gxq7x","null","<div style=""font-size: 75px;"">+</div>","null","","",""
"","","","","","image-keyboard-response","226","2.0.0","294079","pzxd42gxq7x","2218","stimuli/22_50_R.jpg","j","response","j","true"
"","","","","","html-keyboard-response","227","2.0.0","294580","pzxd42gxq7x","null","<p style=""border: 5px solid green;"">Correct!</p>","null","","",""
"","","","","","html-keyboard-response","228","2.0.0","295582","pzxd42gxq7x","null","<div style=""font-size: 75px;"">+</div>","null","","",""
"","","","","","image-keyboard-response","229","2.0.0","297280","pzxd42gxq7x","1697","stimuli/34_50.jpg","f","response","f","true"
"","","","","","html-keyboard-response","230","2.0.0","297782","pzxd42gxq7x","null","<p style=""border: 5px solid green;"">Correct!</p>","null","","",""
"","","","","","html-keyboard-response","231","2.0.0","298784","pzxd42gxq7x","null","<div style=""font-size: 75px;"">+</div>","null","","",""
"","","","","","image-keyboard-response","232","2.0.0","300254","pzxd42gxq7x","1469","stimuli/26_100_R.jpg","j","response","j","true"
"","","","","","html-keyboard-response","233","2.0.0","300756","pzxd42gxq7x","null","<p style=""border: 5px solid green;"">Correct!</p>","null","","",""
"","","","","","html-keyboard-response","234","2.0.0","301758","pzxd42gxq7x","null","<div style=""font-size: 75px;"">+</div>","null","","",""
"","","","","","image-keyboard-response","235","2.0.0","303789","pzxd42gxq7x","2030","stimuli/2_150_R.jpg","j","response","j","true"
"","","","","","html-keyboard-response","236","2.0.0","304291","pzxd42gxq7x","null","<p style=""border: 5px solid green;"">Correct!</p>","null","","",""
"","","","","","html-keyboard-response","237","2.0.0","305294","pzxd42gxq7x","null","<div style=""font-size: 75px;"">+</div>","null","","",""
"","","","","","image-keyboard-response","238","2.0.0","306765","pzxd42gxq7x","1470","stimuli/18_100_R.jpg","f","response","j","false"
"","","","","","html-keyboard-response","239","2.0.0","307267","pzxd42gxq7x","null","<p style=""border: 5px solid red;"">Incorrect.</p>","null","","",""
"","","","","","html-keyboard-response","240","2.0.0","308268","pzxd42gxq7x","null","<div style=""font-size: 75px;"">+</div>","null","","",""
"","","","","","image-keyboard-response","241","2.0.0","309233","pzxd42gxq7x","963","stimuli/37_150_R.jpg","j","response","j","true"
"","","","","","html-keyboard-response","242","2.0.0","309734","pzxd42gxq7x","null","<p style=""border: 5px solid green;"">Correct!</p>","null","","",""
"","","","","","html-keyboard-response","243","2.0.0","310736","pzxd42gxq7x","null","<div style=""font-size: 75px;"">+</div>","null","","",""
"","","","","","image-keyboard-response","244","2.0.0","312935","pzxd42gxq7x","2198","stimuli/14_100.jpg","f","response","f","true"
"","","","","","html-keyboard-response","245","2.0.0","313437","pzxd42gxq7x","null","<p style=""border: 5px solid green;"">Correct!</p>","null","","",""
"","","","","","html-keyboard-response","246","2.0.0","314439","pzxd42gxq7x","null","<div style=""font-size: 75px;"">+</div>","null","","",""
"","","","","","image-keyboard-response","247","2.0.0","315271","pzxd42gxq7x","831","stimuli/48_50.jpg","f","response","f","true"
"","","","","","html-keyboard-response","248","2.0.0","315773","pzxd42gxq7x","null","<p style=""border: 5px solid green;"">Correct!</p>","null","","",""
"","","","","","html-keyboard-response","249","2.0.0","316775","pzxd42gxq7x","null","<div style=""font-size: 75px;"">+</div>","null","","",""
"","","","","","image-keyboard-response","250","2.0.0","318634","pzxd42gxq7x","1857","stimuli/34_50_R.jpg","j","response","j","true"
"","","","","","html-keyboard-response","251","2.0.0","319135","pzxd42gxq7x","null","<p style=""border: 5px solid green;"">Correct!</p>","null","","",""
"","","","","","html-keyboard-response","252","2.0.0","320137","pzxd42gxq7x","null","<div style=""font-size: 75px;"">+</div>","null","","",""
"","","","","","image-keyboard-response","253","2.0.0","322370","pzxd42gxq7x","2231","stimuli/33_0_R.jpg","j","response","j","true"
"","","","","","html-keyboard-response","254","2.0.0","322872","pzxd42gxq7x","null","<p style=""border: 5px solid green;"">Correct!</p>","null","","",""
"","","","","","html-keyboard-response","255","2.0.0","323874","pzxd42gxq7x","null","<div style=""font-size: 75px;"">+</div>","null","","",""
"","","","","","image-keyboard-response","256","2.0.0","325832","pzxd42gxq7x","1957","stimuli/42_50_R.jpg","j","response","j","true"
"","","","","","html-keyboard-response","257","2.0.0","326334","pzxd42gxq7x","null","<p style=""border: 5px solid green;"">Correct!</p>","null","","",""
"","","","","","html-keyboard-response","258","2.0.0","327337","pzxd42gxq7x","null","<div style=""font-size: 75px;"">+</div>","null","","",""
"","","","","","image-keyboard-response","259","2.0.0","329170","pzxd42gxq7x","1832","stimuli/47_150.jpg","f","response","f","true"
"","","","","","html-keyboard-response","260","2.0.0","329672","pzxd42gxq7x","null","<p style=""border: 5px solid green;"">Correct!</p>","null","","",""
"","","","","","html-keyboard-response","261","2.0.0","330674","pzxd42gxq7x","null","<div style=""font-size: 75px;"">+</div>","null","","",""
"","","","","","image-keyboard-response","262","2.0.0","331784","pzxd42gxq7x","1108","stimuli/9_50.jpg","f","response","f","true"
"","","","","","html-keyboard-response","263","2.0.0","332286","pzxd42gxq7x","null","<p style=""border: 5px solid green;"">Correct!</p>","null","","",""
"","","","","","html-keyboard-response","264","2.0.0","333289","pzxd42gxq7x","null","<div style=""font-size: 75px;"">+</div>","null","","",""
"","","","","","image-keyboard-response","265","2.0.0","334694","pzxd42gxq7x","1405","stimuli/14_50_R.jpg","j","response","j","true"
"","","","","","html-keyboard-response","266","2.0.0","335195","pzxd42gxq7x","null","<p style=""border: 5px solid green;"">Correct!</p>","null","","",""
"","","","","","html-keyboard-response","267","2.0.0","336198","pzxd42gxq7x","null","<div style=""font-size: 75px;"">+</div>","null","","",""
"","","","","","image-keyboard-response","268","2.0.0","338300","pzxd42gxq7x","2101","stimuli/48_100_R.jpg","j","response","j","true"
"","","","","","html-keyboard-response","269","2.0.0","338802","pzxd42gxq7x","null","<p style=""border: 5px solid green;"">Correct!</p>","null","","",""
"","","","","","html-keyboard-response","270","2.0.0","339804","pzxd42gxq7x","null","<div style=""font-size: 75px;"">+</div>","null","","",""
"","","","","","image-keyboard-response","271","2.0.0","340857","pzxd42gxq7x","1051","stimuli/21_100_R.jpg","j","response","j","true"
"","","","","","html-keyboard-response","272","2.0.0","341358","pzxd42gxq7x","null","<p style=""border: 5px solid green;"">Correct!</p>","null","","",""
"","","","","","html-keyboard-response","273","2.0.0","342361","pzxd42gxq7x","null","<div style=""font-size: 75px;"">+</div>","null","","",""
"","","","","","image-keyboard-response","274","2.0.0","344773","pzxd42gxq7x","2411","stimuli/44_100.jpg","j","response","f","false"
"","","","","","html-keyboard-response","275","2.0.0","345274","pzxd42gxq7x","null","<p style=""border: 5px solid red;"">Incorrect.</p>","null","","",""
"","","","","","html-keyboard-response","276","2.0.0","346276","pzxd42gxq7x","null","<div style=""font-size: 75px;"">+</div>","null","","",""
"","","","","","image-keyboard-response","277","2.0.0","347274","pzxd42gxq7x","996","stimuli/30_0_R.jpg","j","response","j","true"
"","","","","","html-keyboard-response","278","2.0.0","347776","pzxd42gxq7x","null","<p style=""border: 5px solid green;"">Correct!</p>","null","","",""
"","","","","","html-keyboard-response","279","2.0.0","348779","pzxd42gxq7x","null","<div style=""font-size: 75px;"">+</div>","null","","",""
"","","","","","image-keyboard-response","280","2.0.0","350427","pzxd42gxq7x","1648","stimuli/13_0_R.jpg","j","response","j","true"
"","","","","","html-keyboard-response","281","2.0.0","350928","pzxd42gxq7x","null","<p style=""border: 5px solid green;"">Correct!</p>","null","","",""
"","","","","","html-keyboard-response","282","2.0.0","351931","pzxd42gxq7x","null","<div style=""font-size: 75px;"">+</div>","null","","",""
"","","","","","image-keyboard-response","283","2.0.0","352990","pzxd42gxq7x","1058","stimuli/31_0.jpg","f","response","f","true"
"","","","","","html-keyboard-response","284","2.0.0","353492","pzxd42gxq7x","null","<p style=""border: 5px solid green;"">Correct!</p>","null","","",""
"","","","","","html-keyboard-response","285","2.0.0","354494","pzxd42gxq7x","null","<div style=""font-size: 75px;"">+</div>","null","","",""
"","","","","","image-keyboard-response","286","2.0.0","356937","pzxd42gxq7x","2442","stimuli/5_150.jpg","f","response","f","true"
"","","","","","html-keyboard-response","287","2.0.0","357438","pzxd42gxq7x","null","<p style=""border: 5px solid green;"">Correct!</p>","null","","",""
"","","","","","html-keyboard-response","288","2.0.0","358440","pzxd42gxq7x","null","<div style=""font-size: 75px;"">+</div>","null","","",""
"","","","","","image-keyboard-response","289","2.0.0","359180","pzxd42gxq7x","739","stimuli/29_0.jpg","f","response","f","true"
"","","","","","html-keyboard-response","290","2.0.0","359681","pzxd42gxq7x","null","<p style=""border: 5px solid green;"">Correct!</p>","null","","",""
"","","","","","html-keyboard-response","291","2.0.0","360683","pzxd42gxq7x","null","<div style=""font-size: 75px;"">+</div>","null","","",""
"","","","","","image-keyboard-response","292","2.0.0","362305","pzxd42gxq7x","1620","stimuli/10_100.jpg","j","response","f","false"
"","","","","","html-keyboard-response","293","2.0.0","362807","pzxd42gxq7x","null","<p style=""border: 5px solid red;"">Incorrect.</p>","null","","",""
"","","","","","html-keyboard-response","294","2.0.0","364193","pzxd42gxq7x","1386","<p>Thank you for participating!</p><p>Please press space to answer our survey.</p>"," ","","",""
"","","","","","survey-html-form","295","null","434311","pzxd42gxq7x","70115","","{""response_1"":""Clear and lively"",""response_2"":""Clear and lively"",""response_3"":""Dim and vague; flat"",""response_4"":""Clear and lively"",""response_5"":""Perfectly clear and lively as real seeing"",""response_6"":""Perfectly clear and lively as real seeing"",""response_7"":""Perfectly clear and lively as real seeing"",""response_8"":""Perfectly clear and lively as real seeing"",""response_9"":""Moderately clear and lively"",""response_10"":""Clear and lively"",""response_11"":""Clear and lively"",""response_12"":""Perfectly clear and lively as real seeing"",""response_13"":""Clear and lively"",""response_14"":""Clear and lively"",""response_15"":""Perfectly clear and lively as real seeing"",""response_16"":""Clear and lively""}","","",""
"","","","","","survey-html-form","296","null","482103","pzxd42gxq7x","47790","","{""age"":""23"",""gender"":""female"",""education"":""bachelors"",""handedness"":""right"",""vision"":""corrected"",""technical_difficulties"":""No"",""knowledge_check"":""How well i can recognize an object even if it is in a different position ""}","","",""
